"","SubjectID_unique","Trial","SubjectID","Gender","Age","Image_1","Image_2","Prop_red_image_1","Prop_red_image_2","Prop_yellow_image_1","Prop_yellow_image_2","Prop_green_image_1","Prop_green_image_2","Prop_blue_image_1","Prop_blue_image_2","Response","Correct","RT","Round","Block","group_id","diff","response_dummy","chosen_leader","Leader_gender","Follower_gender","Side","Intercept","Slope","Sensitivity_roll"
"1","10_1",1,"10","Female",26,"Stim\r10y02g36b05.jpeg","Stim\r09y07g06b09.jpeg",10,9,2,7,36,6,5,9,2,0,5.521,1,"rød","10_12",-1,1,"Right_lead","Female","Female","left",0.350292350953413,0.21602345253645,NA
"2","10_1",2,"10","Female",26,"Stim\r03y06g12b09.jpeg","Stim\r04y16g13b13.jpeg",3,4,6,16,12,13,9,13,-2,0,7.153,1,"rød","10_12",1,0,"Agree",NA,NA,"left",0.350292350953413,0.21602345253645,NA
"3","10_1",3,"10","Female",26,"Stim\r22y02g34b05.jpeg","Stim\r21y01g04b27.jpeg",22,21,2,1,34,4,5,27,-1,1,2.016,1,"rød","10_12",-1,0,"Agree",NA,NA,"left",0.350292350953413,0.21602345253645,NA
"4","10_1",4,"10","Female",26,"Stim\r11y26g25b38.jpeg","Stim\r12y09g30b18.jpeg",11,12,26,9,25,30,38,18,-2,0,2.555,1,"rød","10_12",1,0,"Agree",NA,NA,"left",0.350292350953413,0.21602345253645,NA
"5","10_1",5,"10","Female",26,"Stim\r12y07g16b25.jpeg","Stim\r09y02g05b02.jpeg",12,9,7,2,16,5,25,2,3,0,1.628,1,"rød","10_12",-3,1,"Right_lead","Female","Female","left",0.350292350953413,0.21602345253645,NA
"6","10_1",6,"10","Female",26,"Stim\r03y03g02b05.jpeg","Stim\r06y19g29b08.jpeg",3,6,3,19,2,29,5,8,1,1,3.393,1,"rød","10_12",3,1,"Agree",NA,NA,"left",0.350292350953413,0.21602345253645,NA
"7","10_1",7,"10","Female",26,"Stim\r22y23g20b06.jpeg","Stim\r16y21g04b04.jpeg",22,16,23,21,20,4,6,4,3,0,2.329,1,"rød","10_12",-6,1,"Right_lead","Female","Female","left",0.350292350953413,0.21602345253645,NA
"8","10_1",8,"10","Female",26,"Stim\r13y33g08b23.jpeg","Stim\r16y21g04b04.jpeg",13,16,33,21,8,4,23,4,2,1,1.549,1,"rød","10_12",3,1,"Agree",NA,NA,"left",0.350292350953413,0.21602345253645,NA
"9","10_1",9,"10","Female",26,"Stim\r08y23g10b29.jpeg","Stim\r11y13g22b35.jpeg",8,11,23,13,10,22,29,35,-2,0,1.449,1,"rød","10_12",3,0,"Agree",NA,NA,"left",0.350292350953413,0.21602345253645,NA
"10","10_1",10,"10","Female",26,"Stim\r09y17g32b21.jpeg","Stim\r10y37g07b02.jpeg",9,10,17,37,32,7,21,2,2,1,4.776,1,"rød","10_12",1,1,"Left_lead","Female","Female","left",0.350292350953413,0.21602345253645,0.182767678432287
"11","10_1",11,"10","Female",26,"Stim\r17y11g38b07.jpeg","Stim\r21y31g06b08.jpeg",17,21,11,31,38,6,7,8,-1,0,1.323,1,"rød","10_12",4,0,"Agree",NA,NA,"left",0.350292350953413,0.21602345253645,0.17194513683682
"12","10_1",12,"10","Female",26,"Stim\r10y13g07b36.jpeg","Stim\r07y14g27b22.jpeg",10,7,13,14,7,27,36,22,-1,1,1.06,1,"rød","10_12",-3,0,"Agree",NA,NA,"left",0.350292350953413,0.21602345253645,0.180536132365855
"13","10_1",13,"10","Female",26,"Stim\r07y06g08b05.jpeg","Stim\r03y03g02b05.jpeg",7,3,6,3,8,2,5,5,-2,1,1.434,1,"rød","10_12",-4,0,"Agree",NA,NA,"left",0.350292350953413,0.21602345253645,0.187437110517613
"14","10_1",14,"10","Female",26,"Stim\r12y07g07b17.jpeg","Stim\r08y23g10b29.jpeg",12,8,7,23,7,10,17,29,2,0,1.295,1,"rød","10_12",-4,1,"Left_lead","Female","Female","left",0.350292350953413,0.21602345253645,0.19080903278088
"15","10_1",15,"10","Female",26,"Stim\r22y35g09b11.jpeg","Stim\r21y03g15b37.jpeg",22,21,35,3,9,15,11,37,2,0,1.439,1,"rød","10_12",-1,1,"Left_lead","Female","Female","left",0.350292350953413,0.21602345253645,0.205961693961006
"16","10_1",16,"10","Female",26,"Stim\r09y06g26b32.jpeg","Stim\r03y06g12b09.jpeg",9,3,6,6,26,12,32,9,-1,1,0.955,1,"rød","10_12",-6,0,"Agree",NA,NA,"left",0.350292350953413,0.21602345253645,0.191553317144998
"17","10_1",17,"10","Female",26,"Stim\r04y28g27b06.jpeg","Stim\r01y27g01b01.jpeg",4,1,28,27,27,1,6,1,-1,1,0.806,1,"rød","10_12",-3,0,"Agree",NA,NA,"left",0.350292350953413,0.21602345253645,0.204388907670847
"18","10_1",18,"10","Female",26,"Stim\r18y13g28b06.jpeg","Stim\r17y22g16b15.jpeg",18,17,13,22,28,16,6,15,-2,1,1.642,1,"rød","10_12",-1,0,"Agree",NA,NA,"left",0.350292350953413,0.21602345253645,0.21510326516752
"19","10_1",19,"10","Female",26,"Stim\r06y19g29b08.jpeg","Stim\r05y09g02b34.jpeg",6,5,19,9,29,2,8,34,1,0,1.589,1,"rød","10_12",-1,1,"Right_lead","Female","Female","left",0.350292350953413,0.21602345253645,0.218499591689188
"20","10_1",20,"10","Female",26,"Stim\r06y14g31b25.jpeg","Stim\r14y10g15b15.jpeg",6,14,14,10,31,15,25,15,1,1,2.019,1,"rød","10_12",8,1,"Agree",NA,NA,"left",0.350292350953413,0.21602345253645,0.228276089651701
"21","10_1",21,"10","Female",26,"Stim\r14y20g16b10.jpeg","Stim\r18y13g28b06.jpeg",14,18,20,13,16,28,10,6,-2,0,2.337,1,"rød","10_12",4,0,"Agree",NA,NA,"left",0.350292350953413,0.21602345253645,0.228889078594994
"22","10_1",22,"10","Female",26,"Stim\r01y27g01b01.jpeg","Stim\r04y39g24b15.jpeg",1,4,27,39,1,24,1,15,3,1,1.666,1,"rød","10_12",3,1,"Agree",NA,NA,"left",0.350292350953413,0.21602345253645,0.225758721562573
"23","10_1",23,"10","Female",26,"Stim\r06y36g16b14.jpeg","Stim\r12y07g07b17.jpeg",6,12,36,7,16,7,14,17,4,1,2.388,1,"rød","10_12",6,1,"Agree",NA,NA,"left",0.350292350953413,0.21602345253645,0.231445558825557
"24","10_1",24,"10","Female",26,"Stim\r17y20g40b07.jpeg","Stim\r15y05g12b10.jpeg",17,15,20,5,40,12,7,10,-2,1,3.195,1,"rød","10_12",-2,0,"Agree",NA,NA,"left",0.350292350953413,0.21602345253645,0.237960782360356
"25","10_1",25,"10","Female",26,"Stim\r08y12g20b03.jpeg","Stim\r07y02g03b06.jpeg",8,7,12,2,20,3,3,6,2,0,2.541,1,"rød","10_12",-1,1,"Right_lead","Female","Female","left",0.350292350953413,0.21602345253645,0.245081745324456
"26","10_1",26,"10","Female",26,"Stim\r13y33g08b23.jpeg","Stim\r03y11g01b26.jpeg",13,3,33,11,8,1,23,26,4,1,1.49,1,"blå","10_12",3,1,"Agree",NA,NA,"left",0.350292350953413,0.21602345253645,0.244446119107516
"27","10_1",27,"10","Female",26,"Stim\r09y06g26b32.jpeg","Stim\r15y17g24b30.jpeg",9,15,6,17,26,24,32,30,-1,1,1.224,1,"blå","10_12",-2,0,"Agree",NA,NA,"left",0.350292350953413,0.21602345253645,0.237338766997037
"28","10_1",28,"10","Female",26,"Stim\r01y27g01b01.jpeg","Stim\r09y02g05b02.jpeg",1,9,27,2,1,5,1,2,4,1,2.466,1,"blå","10_12",1,1,"Agree",NA,NA,"left",0.350292350953413,0.21602345253645,0.232382397702135
"29","10_1",29,"10","Female",26,"Stim\r07y14g27b22.jpeg","Stim\r03y11g01b26.jpeg",7,3,14,11,27,1,22,26,4,1,1.731,1,"blå","10_12",4,1,"Agree",NA,NA,"left",0.350292350953413,0.21602345253645,0.238597913890446
"30","10_1",30,"10","Female",26,"Stim\r16y09g06b10.jpeg","Stim\r18y13g28b06.jpeg",16,18,9,13,6,28,10,6,2,0,1.309,1,"blå","10_12",-4,1,"Right_lead","Female","Female","left",0.350292350953413,0.21602345253645,0.218648946208651
"31","10_1",31,"10","Female",26,"Stim\r17y20g40b07.jpeg","Stim\r21y24g16b04.jpeg",17,21,20,24,40,16,7,4,1,0,2.064,1,"blå","10_12",-3,1,"Left_lead","Female","Female","left",0.350292350953413,0.21602345253645,0.220535677073619
"32","10_1",32,"10","Female",26,"Stim\r06y36g16b14.jpeg","Stim\r21y31g06b08.jpeg",6,21,36,31,16,6,14,8,-2,1,1.459,1,"blå","10_12",-6,0,"Agree",NA,NA,"left",0.350292350953413,0.21602345253645,0.220225790231535
"33","10_1",33,"10","Female",26,"Stim\r04y16g13b13.jpeg","Stim\r14y10g15b15.jpeg",4,14,16,10,13,15,13,15,4,1,1.515,1,"blå","10_12",2,1,"Left_lead","Female","Female","left",0.350292350953413,0.21602345253645,0.210264553727766
"34","10_1",34,"10","Female",26,"Stim\r09y17g32b21.jpeg","Stim\r06y36g16b14.jpeg",9,6,17,36,32,16,21,14,-2,1,1.426,1,"blå","10_12",-7,0,"Agree",NA,NA,"left",0.350292350953413,0.21602345253645,0.21524419968455
"35","10_1",35,"10","Female",26,"Stim\r07y02g03b06.jpeg","Stim\r09y15g18b07.jpeg",7,9,2,15,3,18,6,7,3,1,1.392,1,"blå","10_12",1,1,"Agree",NA,NA,"left",0.350292350953413,0.21602345253645,0.222840902872856
"36","10_1",36,"10","Female",26,"Stim\r21y24g16b04.jpeg","Stim\r09y02g05b02.jpeg",21,9,24,2,16,5,4,2,4,0,1.376,1,"blå","10_12",-2,1,"Left_lead","Female","Female","left",0.350292350953413,0.21602345253645,0.190567055182273
"37","10_1",37,"10","Female",26,"Stim\r17y12g19b18.jpeg","Stim\r12y07g07b17.jpeg",17,12,12,7,19,7,18,17,3,0,1.085,1,"blå","10_12",-1,1,"Agree",NA,NA,"left",0.350292350953413,0.21602345253645,0.180260914527368
"38","10_1",38,"10","Female",26,"Stim\r08y09g09b11.jpeg","Stim\r06y36g16b14.jpeg",8,6,9,36,9,16,11,14,1,1,1.037,1,"blå","10_12",3,1,"Agree",NA,NA,"left",0.350292350953413,0.21602345253645,0.172994666435983
"39","10_1",39,"10","Female",26,"Stim\r07y06g08b05.jpeg","Stim\r21y31g06b08.jpeg",7,21,6,31,8,6,5,8,-2,0,1.665,1,"blå","10_12",3,0,"Agree",NA,NA,"left",0.350292350953413,0.21602345253645,0.152738486678205
"40","10_1",40,"10","Female",26,"Stim\r19y15g35b05.jpeg","Stim\r08y12g20b03.jpeg",19,8,15,12,35,20,5,3,1,0,5.523,1,"blå","10_12",-2,1,"Left_lead","Female","Female","left",0.350292350953413,0.21602345253645,0.155150759271796
"41","10_1",41,"10","Female",26,"Stim\r14y10g15b15.jpeg","Stim\r22y35g09b11.jpeg",14,22,10,35,15,9,15,11,-1,1,1.263,1,"blå","10_12",-4,0,"Agree",NA,NA,"left",0.350292350953413,0.21602345253645,0.161611375501223
"42","10_1",42,"10","Female",26,"Stim\r04y28g27b06.jpeg","Stim\r10y03g03b07.jpeg",4,10,28,3,27,3,6,7,4,1,1.446,1,"blå","10_12",1,1,"Left_lead","Female","Female","left",0.350292350953413,0.21602345253645,0.157782445880202
"43","10_1",43,"10","Female",26,"Stim\r02y19g24b04.jpeg","Stim\r01y27g01b01.jpeg",2,1,19,27,24,1,4,1,-1,1,1.075,1,"blå","10_12",-3,0,"Agree",NA,NA,"left",0.350292350953413,0.21602345253645,0.157565222480386
"44","10_1",44,"10","Female",26,"Stim\r13y24g05b28.jpeg","Stim\r21y01g04b27.jpeg",13,21,24,1,5,4,28,27,3,0,1.28,1,"blå","10_12",-1,1,"Agree",NA,NA,"left",0.350292350953413,0.21602345253645,0.168191125684824
"45","10_1",45,"10","Female",26,"Stim\r08y23g10b29.jpeg","Stim\r07y14g27b22.jpeg",8,7,23,14,10,27,29,22,3,0,1.161,1,"blå","10_12",-7,1,"Left_lead","Female","Female","left",0.350292350953413,0.21602345253645,0.166661517377846
"46","10_1",46,"10","Female",26,"Stim\r17y07g07b24.jpeg","Stim\r12y12g14b26.jpeg",17,12,7,12,7,14,24,26,-3,0,2.098,1,"blå","10_12",2,0,"Agree",NA,NA,"left",0.350292350953413,0.21602345253645,0.175004057029728
"47","10_1",47,"10","Female",26,"Stim\r18y19g14b27.jpeg","Stim\r20y04g39b23.jpeg",18,20,19,4,14,39,27,23,-1,1,1.179,1,"blå","10_12",-4,0,"Agree",NA,NA,"left",0.350292350953413,0.21602345253645,0.17653685263691
"48","10_1",48,"10","Female",26,"Stim\r03y03g02b05.jpeg","Stim\r13y21g23b09.jpeg",3,13,3,21,2,23,5,9,3,1,1.258,1,"blå","10_12",4,1,"Agree",NA,NA,"left",0.350292350953413,0.21602345253645,0.173066440279438
"49","10_1",49,"10","Female",26,"Stim\r10y13g07b36.jpeg","Stim\r09y06g26b32.jpeg",10,9,13,6,7,26,36,32,4,0,1.684,1,"blå","10_12",-4,1,"Right_lead","Female","Female","left",0.350292350953413,0.21602345253645,0.177173708226549
"50","10_1",50,"10","Female",26,"Stim\r16y21g04b04.jpeg","Stim\r07y14g27b22.jpeg",16,7,21,14,4,27,4,22,-1,1,1.109,1,"gul","10_12",-7,0,"Agree",NA,NA,"left",0.350292350953413,0.21602345253645,0.180396203217595
"51","10_1",51,"10","Female",26,"Stim\r22y23g20b06.jpeg","Stim\r02y19g24b04.jpeg",22,2,23,19,20,24,6,4,-3,1,1.227,1,"gul","10_12",-4,0,"Agree",NA,NA,"left",0.350292350953413,0.21602345253645,0.179934864227749
"52","10_1",52,"10","Female",26,"Stim\r15y17g24b30.jpeg","Stim\r22y23g20b06.jpeg",15,22,17,23,24,20,30,6,4,1,1.109,1,"gul","10_12",6,1,"Agree",NA,NA,"left",0.350292350953413,0.21602345253645,0.179067034323011
"53","10_1",53,"10","Female",26,"Stim\r04y28g27b06.jpeg","Stim\r17y22g16b15.jpeg",4,17,28,22,27,16,6,15,-3,1,1.192,1,"gul","10_12",-6,0,"Agree",NA,NA,"left",0.350292350953413,0.21602345253645,0.191404463931226
"54","10_1",54,"10","Female",26,"Stim\r10y37g07b02.jpeg","Stim\r13y33g08b23.jpeg",10,13,37,33,7,8,2,23,-4,1,1.114,1,"gul","10_12",-4,0,"Agree",NA,NA,"left",0.350292350953413,0.21602345253645,0.19309794455005
"55","10_1",55,"10","Female",26,"Stim\r06y36g16b14.jpeg","Stim\r04y39g24b15.jpeg",6,4,36,39,16,24,14,15,4,1,1.192,1,"gul","10_12",3,1,"Agree",NA,NA,"left",0.350292350953413,0.21602345253645,0.239999808941731
"56","10_1",56,"10","Female",26,"Stim\r21y01g04b27.jpeg","Stim\r15y05g12b10.jpeg",21,15,1,5,4,12,27,10,4,1,1.068,1,"gul","10_12",4,1,"Agree",NA,NA,"left",0.350292350953413,0.21602345253645,0.279833177993591
"57","10_1",57,"10","Female",26,"Stim\r08y23g10b29.jpeg","Stim\r10y27g22b14.jpeg",8,10,23,27,10,22,29,14,3,1,1.274,1,"gul","10_12",4,1,"Right_lead","Female","Female","left",0.350292350953413,0.21602345253645,0.28065875564867
"58","10_1",58,"10","Female",26,"Stim\r10y13g07b36.jpeg","Stim\r07y14g27b22.jpeg",10,7,13,14,7,27,36,22,3,1,0.978,1,"gul","10_12",1,1,"Agree",NA,NA,"left",0.350292350953413,0.21602345253645,0.27007412398468
"59","10_1",59,"10","Female",26,"Stim\r18y13g28b06.jpeg","Stim\r19y15g35b05.jpeg",18,19,13,15,28,35,6,5,3,1,0.918,1,"gul","10_12",2,1,"Agree",NA,NA,"left",0.350292350953413,0.21602345253645,0.229917890801248
"60","10_1",60,"10","Female",26,"Stim\r04y16g13b13.jpeg","Stim\r14y12g04b29.jpeg",4,14,16,12,13,4,13,29,-2,1,1.705,1,"gul","10_12",-4,0,"Agree",NA,NA,"left",0.350292350953413,0.21602345253645,0.245276851762325
"61","10_1",61,"10","Female",26,"Stim\r10y03g03b07.jpeg","Stim\r21y01g04b27.jpeg",10,21,3,1,3,4,7,27,-2,1,1.243,1,"gul","10_12",-2,0,"Agree",NA,NA,"left",0.350292350953413,0.21602345253645,0.229394742331462
"62","10_1",62,"10","Female",26,"Stim\r14y12g04b29.jpeg","Stim\r18y13g28b06.jpeg",14,18,12,13,4,28,29,6,-2,0,0.982,1,"gul","10_12",1,0,"Right_lead","Female","Female","left",0.350292350953413,0.21602345253645,0.233618080026572
"63","10_1",63,"10","Female",26,"Stim\r09y17g32b21.jpeg","Stim\r17y20g40b07.jpeg",9,17,17,20,32,40,21,7,-1,0,1.297,1,"gul","10_12",3,0,"Agree",NA,NA,"left",0.350292350953413,0.21602345253645,0.227610860796348
"64","10_1",64,"10","Female",26,"Stim\r03y06g12b09.jpeg","Stim\r10y03g03b07.jpeg",3,10,6,3,12,3,9,7,2,0,0.854,1,"gul","10_12",-3,1,"Left_lead","Female","Female","left",0.350292350953413,0.21602345253645,0.216070187060885
"65","10_1",65,"10","Female",26,"Stim\r17y07g07b24.jpeg","Stim\r09y06g26b32.jpeg",17,9,7,6,7,26,24,32,-1,1,0.838,1,"gul","10_12",-1,0,"Agree",NA,NA,"left",0.350292350953413,0.21602345253645,0.217067429885189
"66","10_1",66,"10","Female",26,"Stim\r14y10g15b15.jpeg","Stim\r11y14g08b23.jpeg",14,11,10,14,15,8,15,23,3,1,1.054,1,"gul","10_12",4,1,"Agree",NA,NA,"left",0.350292350953413,0.21602345253645,0.21949353921642
"67","10_1",67,"10","Female",26,"Stim\r06y19g29b08.jpeg","Stim\r14y20g16b10.jpeg",6,14,19,20,29,16,8,10,-1,0,1.934,1,"gul","10_12",1,0,"Left_lead","Female","Female","left",0.350292350953413,0.21602345253645,0.231445999560893
"68","10_1",68,"10","Female",26,"Stim\r14y08g21b39.jpeg","Stim\r17y07g07b24.jpeg",14,17,8,7,21,7,39,24,3,0,1.2,1,"gul","10_12",-1,1,"Agree",NA,NA,"left",0.350292350953413,0.21602345253645,0.235100626252273
"69","10_1",69,"10","Female",26,"Stim\r05y09g02b34.jpeg","Stim\r10y13g07b36.jpeg",5,10,9,13,2,7,34,36,3,1,1.231,1,"gul","10_12",4,1,"Agree",NA,NA,"left",0.350292350953413,0.21602345253645,0.23214918434699
"70","10_1",70,"10","Female",26,"Stim\r11y26g25b38.jpeg","Stim\r05y28g23b30.jpeg",11,5,26,28,25,23,38,30,2,1,1.562,1,"gul","10_12",2,1,"Agree",NA,NA,"left",0.350292350953413,0.21602345253645,0.229676677672055
"71","10_1",71,"10","Female",26,"Stim\r17y12g19b18.jpeg","Stim\r19y15g35b05.jpeg",17,19,12,15,19,35,18,5,2,1,0.76,1,"gul","10_12",3,1,"Agree",NA,NA,"left",0.350292350953413,0.21602345253645,0.226917901493018
"72","10_1",72,"10","Female",26,"Stim\r12y12g14b26.jpeg","Stim\r20y14g02b19.jpeg",12,20,12,14,14,2,26,19,-4,0,1.11,1,"gul","10_12",2,0,"Agree",NA,NA,"left",0.350292350953413,0.21602345253645,0.222674912319505
"73","10_1",73,"10","Female",26,"Stim\r22y02g34b05.jpeg","Stim\r10y03g03b07.jpeg",22,10,2,3,34,3,5,7,3,1,1.066,1,"gul","10_12",1,1,"Left_lead","Female","Female","left",0.350292350953413,0.21602345253645,0.230508805251679
"74","10_1",74,"10","Female",26,"Stim\r09y07g06b09.jpeg","Stim\r03y03g02b05.jpeg",9,3,7,3,6,2,9,5,-1,1,1.608,1,"grøn","10_12",-4,0,"Agree",NA,NA,"left",0.350292350953413,0.21602345253645,0.242147972010595
"75","10_1",75,"10","Female",26,"Stim\r05y09g02b34.jpeg","Stim\r10y03g03b07.jpeg",5,10,9,3,2,3,34,7,3,1,0.958,1,"grøn","10_12",1,1,"Agree",NA,NA,"left",0.350292350953413,0.21602345253645,0.244860199652742
"76","10_1",76,"10","Female",26,"Stim\r19y15g35b05.jpeg","Stim\r05y40g33b16.jpeg",19,5,15,40,35,33,5,16,-2,1,1.596,1,"grøn","10_12",-2,0,"Agree",NA,NA,"left",0.350292350953413,0.21602345253645,0.236610888414465
"77","10_1",77,"10","Female",26,"Stim\r04y39g24b15.jpeg","Stim\r12y09g30b18.jpeg",4,12,39,9,24,30,15,18,4,1,1.222,1,"grøn","10_12",6,1,"Agree",NA,NA,"left",0.350292350953413,0.21602345253645,0.213056188073056
"78","10_1",78,"10","Female",26,"Stim\r02y19g24b04.jpeg","Stim\r04y28g27b06.jpeg",2,4,19,28,24,27,4,6,2,1,0.889,1,"grøn","10_12",3,1,"Agree",NA,NA,"left",0.350292350953413,0.21602345253645,0.214777829362439
"79","10_1",79,"10","Female",26,"Stim\r22y23g20b06.jpeg","Stim\r12y12g14b26.jpeg",22,12,23,12,20,14,6,26,2,0,0.814,1,"grøn","10_12",-6,1,"Agree",NA,NA,"left",0.350292350953413,0.21602345253645,0.203602769711107
"80","10_1",80,"10","Female",26,"Stim\r11y26g25b38.jpeg","Stim\r11y13g22b35.jpeg",11,11,26,13,25,22,38,35,-2,1,0.873,1,"grøn","10_12",-3,0,"Left_lead","Female","Female","left",0.350292350953413,0.21602345253645,0.209697026650933
"81","10_1",81,"10","Female",26,"Stim\r17y12g19b18.jpeg","Stim\r14y08g21b39.jpeg",17,14,12,8,19,21,18,39,1,1,2.381,1,"grøn","10_12",2,1,"Agree",NA,NA,"left",0.350292350953413,0.21602345253645,0.208234819985284
"82","10_1",82,"10","Female",26,"Stim\r13y21g23b09.jpeg","Stim\r10y27g22b14.jpeg",13,10,21,27,23,22,9,14,-1,1,1.178,1,"grøn","10_12",-1,0,"Agree",NA,NA,"left",0.350292350953413,0.21602345253645,0.213458853674057
"83","10_1",83,"10","Female",26,"Stim\r05y40g33b16.jpeg","Stim\r06y19g29b08.jpeg",5,6,40,19,33,29,16,8,-3,1,1.021,1,"grøn","10_12",-4,0,"Agree",NA,NA,"left",0.350292350953413,0.21602345253645,0.211123523433824
"84","10_1",84,"10","Female",26,"Stim\r04y16g13b13.jpeg","Stim\r08y23g10b29.jpeg",4,8,16,23,13,10,13,29,3,0,1.109,1,"grøn","10_12",-3,1,"Right_lead","Female","Female","left",0.350292350953413,0.21602345253645,0.203301978601357
"85","10_1",85,"10","Female",26,"Stim\r21y24g16b04.jpeg","Stim\r15y16g12b03.jpeg",21,15,24,16,16,12,4,3,-1,1,0.991,1,"grøn","10_12",-4,0,"Left_lead","Female","Female","left",0.350292350953413,0.21602345253645,0.198632297811275
"86","10_1",86,"10","Female",26,"Stim\r16y09g06b10.jpeg","Stim\r10y03g03b07.jpeg",16,10,9,3,6,3,10,7,2,0,0.756,1,"grøn","10_12",-3,1,"Agree",NA,NA,"left",0.350292350953413,0.21602345253645,0.202965021517648
"87","10_1",87,"10","Female",26,"Stim\r20y14g02b19.jpeg","Stim\r16y21g04b04.jpeg",20,16,14,21,2,4,19,4,2,1,0.869,1,"grøn","10_12",2,1,"Agree",NA,NA,"left",0.350292350953413,0.21602345253645,0.223411339127277
"88","10_1",88,"10","Female",26,"Stim\r04y28g27b06.jpeg","Stim\r06y14g31b25.jpeg",4,6,28,14,27,31,6,25,2,1,1.39,1,"grøn","10_12",4,1,"Agree",NA,NA,"left",0.350292350953413,0.21602345253645,0.225532758485563
"89","10_1",89,"10","Female",26,"Stim\r10y02g36b05.jpeg","Stim\r22y02g34b05.jpeg",10,22,2,2,36,34,5,5,-4,1,1.124,1,"grøn","10_12",-2,0,"Agree",NA,NA,"left",0.350292350953413,0.21602345253645,0.249777542640028
"90","10_1",90,"10","Female",26,"Stim\r06y14g31b25.jpeg","Stim\r22y02g34b05.jpeg",6,22,14,2,31,34,25,5,3,1,1.039,1,"grøn","10_12",3,1,"Agree",NA,NA,"left",0.350292350953413,0.21602345253645,0.249774536553132
"91","10_1",91,"10","Female",26,"Stim\r12y12g14b26.jpeg","Stim\r09y15g18b07.jpeg",12,9,12,15,14,18,26,7,4,1,1.392,1,"grøn","10_12",4,1,"Agree",NA,NA,"left",0.350292350953413,0.21602345253645,0.253208479159822
"92","10_1",92,"10","Female",26,"Stim\r13y33g08b23.jpeg","Stim\r17y07g07b24.jpeg",13,17,33,7,8,7,23,24,1,0,1.288,1,"grøn","10_12",-1,1,"Right_lead","Female","Female","left",0.350292350953413,0.21602345253645,0.257696892495491
"93","10_1",93,"10","Female",26,"Stim\r14y08g21b39.jpeg","Stim\r03y06g12b09.jpeg",14,3,8,6,21,12,39,9,-1,1,0.926,1,"grøn","10_12",-9,0,"Left_lead","Female","Female","left",0.350292350953413,0.21602345253645,0.244507009657091
"94","10_1",94,"10","Female",26,"Stim\r09y02g05b02.jpeg","Stim\r03y11g01b26.jpeg",9,3,2,11,5,1,2,26,-1,1,1.94,1,"grøn","10_12",-4,0,"Right_lead","Female","Female","left",0.350292350953413,0.21602345253645,0.250491350329966
"95","10_1",95,"10","Female",26,"Stim\r10y13g07b36.jpeg","Stim\r16y21g04b04.jpeg",10,16,13,21,7,4,36,4,-1,1,1.031,1,"grøn","10_12",-3,0,"Left_lead","Female","Female","left",0.350292350953413,0.21602345253645,0.244574066451445
"96","10_1",96,"10","Female",26,"Stim\r10y37g07b02.jpeg","Stim\r17y22g16b15.jpeg",10,17,37,22,7,16,2,15,3,1,1.152,1,"grøn","10_12",9,1,"Agree",NA,NA,"left",0.350292350953413,0.21602345253645,0.245416868607638
"97","10_1",97,"10","Female",26,"Stim\r14y10g15b15.jpeg","Stim\r17y22g16b15.jpeg",14,17,10,22,15,16,15,15,3,1,1.37,1,"grøn","10_12",1,1,"Agree",NA,NA,"left",0.350292350953413,0.21602345253645,NA
"98","10_2",1,"10","Female",26,"Stim\r22y23g20b06.jpeg","Stim\r15y17g24b30.jpeg",22,15,23,17,20,24,6,30,-3,1,1.808,2,"rød","10_9",-7,0,"Agree",NA,NA,"left",0.259407647530501,0.224026699484178,NA
"99","10_2",2,"10","Female",26,"Stim\r09y02g05b02.jpeg","Stim\r03y11g01b26.jpeg",9,3,2,11,5,1,2,26,-1,1,0.852,2,"rød","10_9",-6,0,"Agree",NA,NA,"left",0.259407647530501,0.224026699484178,NA
"100","10_2",3,"10","Female",26,"Stim\r18y19g14b27.jpeg","Stim\r14y20g16b10.jpeg",18,14,19,20,14,16,27,10,-2,1,1.57,2,"rød","10_9",-4,0,"Agree",NA,NA,"left",0.259407647530501,0.224026699484178,NA
"101","10_2",4,"10","Female",26,"Stim\r11y13g22b35.jpeg","Stim\r05y40g33b16.jpeg",11,5,13,40,22,33,35,16,-3,1,2.131,2,"rød","10_9",-6,0,"Agree",NA,NA,"left",0.259407647530501,0.224026699484178,NA
"102","10_2",5,"10","Female",26,"Stim\r21y03g15b37.jpeg","Stim\r17y07g07b24.jpeg",21,17,3,7,15,7,37,24,-1,1,1.66,2,"rød","10_9",-4,0,"Agree",NA,NA,"left",0.259407647530501,0.224026699484178,NA
"103","10_2",6,"10","Female",26,"Stim\r17y12g19b18.jpeg","Stim\r14y08g21b39.jpeg",17,14,12,8,19,21,18,39,-1,1,0.957,2,"rød","10_9",-3,0,"Agree",NA,NA,"left",0.259407647530501,0.224026699484178,NA
"104","10_2",7,"10","Female",26,"Stim\r14y12g04b29.jpeg","Stim\r11y10g06b19.jpeg",14,11,12,10,4,6,29,19,-2,1,1.772,2,"rød","10_9",-3,0,"Agree",NA,NA,"left",0.259407647530501,0.224026699484178,NA
"105","10_2",8,"10","Female",26,"Stim\r13y33g08b23.jpeg","Stim\r06y14g31b25.jpeg",13,6,33,14,8,31,23,25,2,0,0.977,2,"rød","10_9",-7,1,"Left_lead","Female","Male","left",0.259407647530501,0.224026699484178,NA
"106","10_2",9,"10","Female",26,"Stim\r14y08g21b39.jpeg","Stim\r13y33g08b23.jpeg",14,13,8,33,21,8,39,23,1,0,2.151,2,"rød","10_9",-1,1,"Left_lead","Female","Male","left",0.259407647530501,0.224026699484178,NA
"107","10_2",10,"10","Female",26,"Stim\r12y12g14b26.jpeg","Stim\r05y09g02b34.jpeg",12,5,12,9,14,2,26,34,-2,1,1.061,2,"rød","10_9",-7,0,"Agree",NA,NA,"left",0.259407647530501,0.224026699484178,0.214438683999443
"108","10_2",11,"10","Female",26,"Stim\r14y20g16b10.jpeg","Stim\r17y20g40b07.jpeg",14,17,20,20,16,40,10,7,1,1,2.211,2,"rød","10_9",3,1,"Right_lead","Male","Female","left",0.259407647530501,0.224026699484178,0.193013396851873
"109","10_2",12,"10","Female",26,"Stim\r03y06g12b09.jpeg","Stim\r06y14g31b25.jpeg",3,6,6,14,12,31,9,25,2,1,1.098,2,"rød","10_9",3,1,"Agree",NA,NA,"left",0.259407647530501,0.224026699484178,0.210671048190582
"110","10_2",13,"10","Female",26,"Stim\r15y05g12b10.jpeg","Stim\r16y09g06b10.jpeg",15,16,5,9,12,6,10,10,-4,0,1.43,2,"rød","10_9",1,0,"Right_lead","Male","Female","left",0.259407647530501,0.224026699484178,0.199695205976978
"111","10_2",14,"10","Female",26,"Stim\r10y03g03b07.jpeg","Stim\r09y02g05b02.jpeg",10,9,3,2,3,5,7,2,3,0,0.999,2,"rød","10_9",-1,1,"Agree",NA,NA,"left",0.259407647530501,0.224026699484178,0.201405732870928
"112","10_2",15,"10","Female",26,"Stim\r07y14g27b22.jpeg","Stim\r08y12g20b03.jpeg",7,8,14,12,27,20,22,3,-1,0,1.764,2,"rød","10_9",1,0,"Agree",NA,NA,"left",0.259407647530501,0.224026699484178,0.21344870140806
"113","10_2",16,"10","Female",26,"Stim\r06y36g16b14.jpeg","Stim\r07y02g03b06.jpeg",6,7,36,2,16,3,14,6,2,1,0.852,2,"rød","10_9",1,1,"Right_lead","Male","Female","left",0.259407647530501,0.224026699484178,0.198966469950431
"114","10_2",17,"10","Female",26,"Stim\r07y02g03b06.jpeg","Stim\r01y27g01b01.jpeg",7,1,2,27,3,1,6,1,-3,1,0.929,2,"rød","10_9",-6,0,"Agree",NA,NA,"left",0.259407647530501,0.224026699484178,0.204690437477319
"115","10_2",18,"10","Female",26,"Stim\r03y11g01b26.jpeg","Stim\r05y40g33b16.jpeg",3,5,11,40,1,33,26,16,-2,0,1.267,2,"rød","10_9",2,0,"Right_lead","Male","Female","left",0.259407647530501,0.224026699484178,0.228951999778031
"116","10_2",19,"10","Female",26,"Stim\r09y07g06b09.jpeg","Stim\r11y26g25b38.jpeg",9,11,7,26,6,25,9,38,-1,0,1.623,2,"rød","10_9",2,0,"Left_lead","Female","Male","left",0.259407647530501,0.224026699484178,0.228916912149137
"117","10_2",20,"10","Female",26,"Stim\r09y15g18b07.jpeg","Stim\r02y19g24b04.jpeg",9,2,15,19,18,24,7,4,-3,1,1.03,2,"rød","10_9",-7,0,"Agree",NA,NA,"left",0.259407647530501,0.224026699484178,0.234623877717512
"118","10_2",21,"10","Female",26,"Stim\r10y37g07b02.jpeg","Stim\r12y07g16b25.jpeg",10,12,37,7,7,16,2,25,3,1,1.15,2,"rød","10_9",2,1,"Left_lead","Female","Male","left",0.259407647530501,0.224026699484178,0.231753176150072
"119","10_2",22,"10","Female",26,"Stim\r13y21g23b09.jpeg","Stim\r10y07g11b10.jpeg",13,10,21,7,23,11,9,10,1,0,1.214,2,"rød","10_9",-3,1,"Left_lead","Female","Male","left",0.259407647530501,0.224026699484178,0.225991451345569
"120","10_2",23,"10","Female",26,"Stim\r20y04g39b23.jpeg","Stim\r17y22g16b15.jpeg",20,17,4,22,39,16,23,15,1,0,0.928,2,"rød","10_9",-3,1,"Right_lead","Male","Female","left",0.259407647530501,0.224026699484178,0.228189294685508
"121","10_2",24,"10","Female",26,"Stim\r20y14g02b19.jpeg","Stim\r19y15g35b05.jpeg",20,19,14,15,2,35,19,5,3,0,1.095,2,"rød","10_9",-1,1,"Right_lead","Male","Female","left",0.259407647530501,0.224026699484178,0.229247475220098
"122","10_2",25,"10","Female",26,"Stim\r09y17g32b21.jpeg","Stim\r08y23g10b29.jpeg",9,8,17,23,32,10,21,29,3,1,1.061,2,"blå","10_9",8,1,"Agree",NA,NA,"left",0.259407647530501,0.224026699484178,0.228959978858413
"123","10_2",26,"10","Female",26,"Stim\r21y01g04b27.jpeg","Stim\r11y10g06b19.jpeg",21,11,1,10,4,6,27,19,-3,1,1.348,2,"blå","10_9",-8,0,"Agree",NA,NA,"left",0.259407647530501,0.224026699484178,0.235824108833352
"124","10_2",27,"10","Female",26,"Stim\r03y06g12b09.jpeg","Stim\r17y12g19b18.jpeg",3,17,6,12,12,19,9,18,4,1,1.136,2,"blå","10_9",9,1,"Agree",NA,NA,"left",0.259407647530501,0.224026699484178,0.223139628644754
"125","10_2",28,"10","Female",26,"Stim\r07y02g03b06.jpeg","Stim\r10y27g22b14.jpeg",7,10,2,27,3,22,6,14,3,1,1.501,2,"blå","10_9",8,1,"Agree",NA,NA,"left",0.259407647530501,0.224026699484178,0.226521502860619
"126","10_2",29,"10","Female",26,"Stim\r10y07g11b10.jpeg","Stim\r12y09g30b18.jpeg",10,12,7,9,11,30,10,18,2,1,1.428,2,"blå","10_9",8,1,"Right_lead","Male","Female","left",0.259407647530501,0.224026699484178,0.229980360225586
"127","10_2",30,"10","Female",26,"Stim\r19y10g06b15.jpeg","Stim\r17y07g07b24.jpeg",19,17,10,7,6,7,15,24,3,1,0.929,2,"blå","10_9",9,1,"Agree",NA,NA,"left",0.259407647530501,0.224026699484178,0.223936033276485
"128","10_2",31,"10","Female",26,"Stim\r17y07g07b24.jpeg","Stim\r11y14g08b23.jpeg",17,11,7,14,7,8,24,23,-3,1,1.438,2,"blå","10_9",-1,0,"Agree",NA,NA,"left",0.259407647530501,0.224026699484178,0.223155834329251
"129","10_2",32,"10","Female",26,"Stim\r02y10g14b11.jpeg","Stim\r03y03g02b05.jpeg",2,3,10,3,14,2,11,5,2,0,0.893,2,"blå","10_9",-6,1,"Right_lead","Male","Female","left",0.259407647530501,0.224026699484178,0.215692863944518
"130","10_2",33,"10","Female",26,"Stim\r06y19g29b08.jpeg","Stim\r17y11g38b07.jpeg",6,17,19,11,29,38,8,7,3,0,1.108,2,"blå","10_9",-1,1,"Left_lead","Female","Male","left",0.259407647530501,0.224026699484178,0.208828451111305
"131","10_2",34,"10","Female",26,"Stim\r13y21g23b09.jpeg","Stim\r07y06g08b05.jpeg",13,7,21,6,23,8,9,5,1,0,1.273,2,"blå","10_9",-4,1,"Left_lead","Female","Male","left",0.259407647530501,0.224026699484178,0.204374065470853
"132","10_2",35,"10","Female",26,"Stim\r20y14g02b19.jpeg","Stim\r16y09g06b10.jpeg",20,16,14,9,2,6,19,10,-2,1,0.847,2,"blå","10_9",-9,0,"Agree",NA,NA,"left",0.259407647530501,0.224026699484178,0.205272595998991
"133","10_2",36,"10","Female",26,"Stim\r11y13g22b35.jpeg","Stim\r05y09g02b34.jpeg",11,5,13,9,22,2,35,34,3,0,1.667,2,"blå","10_9",-1,1,"Agree",NA,NA,"left",0.259407647530501,0.224026699484178,0.179763014779802
"134","10_2",37,"10","Female",26,"Stim\r13y33g08b23.jpeg","Stim\r04y39g24b15.jpeg",13,4,33,39,8,24,23,15,1,0,1.064,2,"blå","10_9",-8,1,"Right_lead","Male","Female","left",0.259407647530501,0.224026699484178,0.160781702724339
"135","10_2",38,"10","Female",26,"Stim\r21y03g15b37.jpeg","Stim\r05y09g02b34.jpeg",21,5,3,9,15,2,37,34,2,0,1.268,2,"blå","10_9",-3,1,"Right_lead","Male","Female","left",0.259407647530501,0.224026699484178,0.154297975973832
"136","10_2",39,"10","Female",26,"Stim\r15y17g24b30.jpeg","Stim\r09y06g26b32.jpeg",15,9,17,6,24,26,30,32,2,1,1.733,2,"blå","10_9",2,1,"Right_lead","Male","Female","left",0.259407647530501,0.224026699484178,0.145805077591238
"137","10_2",40,"10","Female",26,"Stim\r20y04g39b23.jpeg","Stim\r21y01g04b27.jpeg",20,21,4,1,39,4,23,27,1,1,0.524,2,"blå","10_9",4,1,"Left_lead","Female","Male","left",0.259407647530501,0.224026699484178,0.145816136894526
"138","10_2",41,"10","Female",26,"Stim\r01y27g01b01.jpeg","Stim\r21y24g16b04.jpeg",1,21,27,24,1,16,1,4,2,1,2.484,2,"blå","10_9",3,1,"Agree",NA,NA,"left",0.259407647530501,0.224026699484178,0.150786705493484
"139","10_2",42,"10","Female",26,"Stim\r13y24g05b28.jpeg","Stim\r17y07g07b24.jpeg",13,17,24,7,5,7,28,24,3,0,1.118,2,"blå","10_9",-4,1,"Right_lead","Male","Female","left",0.259407647530501,0.224026699484178,0.149074310143516
"140","10_2",43,"10","Female",26,"Stim\r12y07g07b17.jpeg","Stim\r08y09g09b11.jpeg",12,8,7,9,7,9,17,11,-3,1,0.925,2,"blå","10_9",-6,0,"Agree",NA,NA,"left",0.259407647530501,0.224026699484178,0.150298636079737
"141","10_2",44,"10","Female",26,"Stim\r14y08g21b39.jpeg","Stim\r11y26g25b38.jpeg",14,11,8,26,21,25,39,38,-1,1,1.883,2,"blå","10_9",-1,0,"Left_lead","Female","Male","left",0.259407647530501,0.224026699484178,0.165796424171458
"142","10_2",45,"10","Female",26,"Stim\r17y22g16b15.jpeg","Stim\r17y12g19b18.jpeg",17,17,22,12,16,19,15,18,3,1,1.002,2,"blå","10_9",3,1,"Left_lead","Female","Male","left",0.259407647530501,0.224026699484178,0.166802832890354
"143","10_2",46,"10","Female",26,"Stim\r14y20g16b10.jpeg","Stim\r15y16g12b03.jpeg",14,15,20,16,16,12,10,3,-1,1,2.268,2,"blå","10_9",-7,0,"Agree",NA,NA,"left",0.259407647530501,0.224026699484178,0.178891673172698
"144","10_2",47,"10","Female",26,"Stim\r03y03g02b05.jpeg","Stim\r17y20g40b07.jpeg",3,17,3,20,2,40,5,7,3,1,0.985,2,"blå","10_9",2,1,"Agree",NA,NA,"left",0.259407647530501,0.224026699484178,0.184939610370865
"145","10_2",48,"10","Female",26,"Stim\r06y14g31b25.jpeg","Stim\r14y12g04b29.jpeg",6,14,14,12,31,4,25,29,2,1,2.763,2,"blå","10_9",4,1,"Left_lead","Female","Male","left",0.259407647530501,0.224026699484178,0.188934577078728
"146","10_2",49,"10","Female",26,"Stim\r11y26g25b38.jpeg","Stim\r15y17g24b30.jpeg",11,15,26,17,25,24,38,30,-1,1,3.584,2,"gul","10_9",-9,0,"Agree",NA,NA,"left",0.259407647530501,0.224026699484178,0.200268916096628
"147","10_2",50,"10","Female",26,"Stim\r08y12g20b03.jpeg","Stim\r11y10g06b19.jpeg",8,11,12,10,20,6,3,19,-2,1,0.844,2,"gul","10_9",-2,0,"Agree",NA,NA,"left",0.259407647530501,0.224026699484178,0.213033806515431
"148","10_2",51,"10","Female",26,"Stim\r17y11g38b07.jpeg","Stim\r05y09g02b34.jpeg",17,5,11,9,38,2,7,34,-3,1,1.293,2,"gul","10_9",-2,0,"Agree",NA,NA,"left",0.259407647530501,0.224026699484178,0.229752054800301
"149","10_2",52,"10","Female",26,"Stim\r22y35g09b11.jpeg","Stim\r04y39g24b15.jpeg",22,4,35,39,9,24,11,15,3,1,1.128,2,"gul","10_9",4,1,"Right_lead","Male","Female","left",0.259407647530501,0.224026699484178,0.22454877397776
"150","10_2",53,"10","Female",26,"Stim\r07y06g08b05.jpeg","Stim\r03y03g02b05.jpeg",7,3,6,3,8,2,5,5,-3,1,0.958,2,"gul","10_9",-3,0,"Agree",NA,NA,"left",0.259407647530501,0.224026699484178,0.265626566571967
"151","10_2",54,"10","Female",26,"Stim\r09y06g26b32.jpeg","Stim\r10y02g36b05.jpeg",9,10,6,2,26,36,32,5,-4,1,1.405,2,"gul","10_9",-4,0,"Agree",NA,NA,"left",0.259407647530501,0.224026699484178,0.257155841946121
"152","10_2",55,"10","Female",26,"Stim\r12y09g30b18.jpeg","Stim\r09y07g06b09.jpeg",12,9,9,7,30,6,18,9,2,0,1.148,2,"gul","10_9",-2,1,"Right_lead","Male","Female","left",0.259407647530501,0.224026699484178,0.258651150053335
"153","10_2",56,"10","Female",26,"Stim\r16y09g06b10.jpeg","Stim\r14y08g21b39.jpeg",16,14,9,8,6,21,10,39,-2,1,2.711,2,"gul","10_9",-1,0,"Agree",NA,NA,"left",0.259407647530501,0.224026699484178,0.28248336511192
"154","10_2",57,"10","Female",26,"Stim\r22y02g34b05.jpeg","Stim\r21y01g04b27.jpeg",22,21,2,1,34,4,5,27,-1,1,1.666,2,"gul","10_9",-1,0,"Agree",NA,NA,"left",0.259407647530501,0.224026699484178,0.272058728054554
"155","10_2",58,"10","Female",26,"Stim\r10y03g03b07.jpeg","Stim\r10y07g11b10.jpeg",10,10,3,7,3,11,7,10,3,1,1.032,2,"gul","10_9",4,1,"Agree",NA,NA,"left",0.259407647530501,0.224026699484178,0.269288123822098
"156","10_2",59,"10","Female",26,"Stim\r12y07g07b17.jpeg","Stim\r17y11g38b07.jpeg",12,17,7,11,7,38,17,7,3,1,1.081,2,"gul","10_9",4,1,"Right_lead","Male","Female","left",0.259407647530501,0.224026699484178,0.21481025352878
"157","10_2",60,"10","Female",26,"Stim\r10y37g07b02.jpeg","Stim\r06y36g16b14.jpeg",10,6,37,36,7,16,2,14,-2,1,6.059,2,"gul","10_9",-1,0,"Agree",NA,NA,"left",0.259407647530501,0.224026699484178,0.238570849322026
"158","10_2",61,"10","Female",26,"Stim\r22y23g20b06.jpeg","Stim\r19y15g35b05.jpeg",22,19,23,15,20,35,6,5,-4,1,1.037,2,"gul","10_9",-8,0,"Agree",NA,NA,"left",0.259407647530501,0.224026699484178,0.222654114519214
"159","10_2",62,"10","Female",26,"Stim\r13y33g08b23.jpeg","Stim\r06y36g16b14.jpeg",13,6,33,36,8,16,23,14,2,1,1.914,2,"gul","10_9",3,1,"Left_lead","Female","Male","left",0.259407647530501,0.224026699484178,0.228970526254371
"160","10_2",63,"10","Female",26,"Stim\r17y07g07b24.jpeg","Stim\r14y10g15b15.jpeg",17,14,7,10,7,15,24,15,4,1,1.317,2,"gul","10_9",3,1,"Agree",NA,NA,"left",0.259407647530501,0.224026699484178,0.227998471418562
"161","10_2",64,"10","Female",26,"Stim\r17y22g16b15.jpeg","Stim\r13y24g05b28.jpeg",17,13,22,24,16,5,15,28,-3,0,1.264,2,"gul","10_9",2,0,"Right_lead","Male","Female","left",0.259407647530501,0.224026699484178,0.223553858281904
"162","10_2",65,"10","Female",26,"Stim\r12y12g14b26.jpeg","Stim\r17y11g38b07.jpeg",12,17,12,11,14,38,26,7,1,0,1.435,2,"gul","10_9",-1,1,"Right_lead","Male","Female","left",0.259407647530501,0.224026699484178,0.223944869623776
"163","10_2",66,"10","Female",26,"Stim\r13y21g23b09.jpeg","Stim\r13y24g05b28.jpeg",13,13,21,24,23,5,9,28,-1,0,2.051,2,"gul","10_9",3,0,"Left_lead","Female","Male","left",0.259407647530501,0.224026699484178,0.221115730004228
"164","10_2",67,"10","Female",26,"Stim\r15y05g12b10.jpeg","Stim\r20y04g39b23.jpeg",15,20,5,4,12,39,10,23,-1,1,0.986,2,"gul","10_9",-1,0,"Right_lead","Male","Female","left",0.259407647530501,0.224026699484178,0.239047980191585
"165","10_2",68,"10","Female",26,"Stim\r11y10g06b19.jpeg","Stim\r21y03g15b37.jpeg",11,21,10,3,6,15,19,37,-1,1,2.773,2,"gul","10_9",-7,0,"Agree",NA,NA,"left",0.259407647530501,0.224026699484178,0.241431689593829
"166","10_2",69,"10","Female",26,"Stim\r16y21g04b04.jpeg","Stim\r01y27g01b01.jpeg",16,1,21,27,4,1,4,1,3,1,1.489,2,"gul","10_9",6,1,"Agree",NA,NA,"left",0.259407647530501,0.224026699484178,0.245713510405074
"167","10_2",70,"10","Female",26,"Stim\r03y11g01b26.jpeg","Stim\r20y04g39b23.jpeg",3,20,11,4,1,39,26,23,-4,1,1.113,2,"gul","10_9",-7,0,"Agree",NA,NA,"left",0.259407647530501,0.224026699484178,0.254368408660893
"168","10_2",71,"10","Female",26,"Stim\r20y04g39b23.jpeg","Stim\r09y07g06b09.jpeg",20,9,4,7,39,6,23,9,3,1,1.621,2,"gul","10_9",3,1,"Agree",NA,NA,"left",0.259407647530501,0.224026699484178,0.249775795057807
"169","10_2",72,"10","Female",26,"Stim\r14y08g21b39.jpeg","Stim\r08y12g20b03.jpeg",14,8,8,12,21,20,39,3,4,1,1.064,2,"gul","10_9",4,1,"Agree",NA,NA,"left",0.259407647530501,0.224026699484178,0.241313806280884
"170","10_2",73,"10","Female",26,"Stim\r02y10g14b11.jpeg","Stim\r06y36g16b14.jpeg",2,6,10,36,14,16,11,14,-2,0,1.805,2,"grøn","10_9",2,0,"Left_lead","Female","Male","left",0.259407647530501,0.224026699484178,0.23600636325022
"171","10_2",74,"10","Female",26,"Stim\r10y13g07b36.jpeg","Stim\r09y02g05b02.jpeg",10,9,13,2,7,5,36,2,-1,1,0.793,2,"grøn","10_9",-2,0,"Agree",NA,NA,"left",0.259407647530501,0.224026699484178,0.245631728577396
"172","10_2",75,"10","Female",26,"Stim\r16y09g06b10.jpeg","Stim\r12y07g07b17.jpeg",16,12,9,7,6,7,10,17,3,1,0.898,2,"grøn","10_9",1,1,"Agree",NA,NA,"left",0.259407647530501,0.224026699484178,0.249618473035998
"173","10_2",76,"10","Female",26,"Stim\r22y35g09b11.jpeg","Stim\r12y07g07b17.jpeg",22,12,35,7,9,7,11,17,-1,1,1.215,2,"grøn","10_9",-2,0,"Left_lead","Female","Male","left",0.259407647530501,0.224026699484178,0.247291321727642
"174","10_2",77,"10","Female",26,"Stim\r07y02g03b06.jpeg","Stim\r13y24g05b28.jpeg",7,13,2,24,3,5,6,28,1,1,0.958,2,"grøn","10_9",2,1,"Agree",NA,NA,"left",0.259407647530501,0.224026699484178,0.217234104618956
"175","10_2",78,"10","Female",26,"Stim\r08y23g10b29.jpeg","Stim\r15y05g12b10.jpeg",8,15,23,5,10,12,29,10,3,1,0.981,2,"grøn","10_9",2,1,"Agree",NA,NA,"left",0.259407647530501,0.224026699484178,0.21470602704851
"176","10_2",79,"10","Female",26,"Stim\r14y08g21b39.jpeg","Stim\r15y17g24b30.jpeg",14,15,8,17,21,24,39,30,4,1,1.094,2,"grøn","10_9",3,1,"Agree",NA,NA,"left",0.259407647530501,0.224026699484178,0.211523605069971
"177","10_2",80,"10","Female",26,"Stim\r22y02g34b05.jpeg","Stim\r05y40g33b16.jpeg",22,5,2,40,34,33,5,16,3,0,1.17,2,"grøn","10_9",-1,1,"Agree",NA,NA,"left",0.259407647530501,0.224026699484178,0.21581820279901
"178","10_2",81,"10","Female",26,"Stim\r12y07g16b25.jpeg","Stim\r08y12g20b03.jpeg",12,8,7,12,16,20,25,3,2,1,0.927,2,"grøn","10_9",4,1,"Agree",NA,NA,"left",0.259407647530501,0.224026699484178,0.214057532691525
"179","10_2",82,"10","Female",26,"Stim\r06y14g31b25.jpeg","Stim\r06y19g29b08.jpeg",6,6,14,19,31,29,25,8,-2,1,0.917,2,"grøn","10_9",-2,0,"Agree",NA,NA,"left",0.259407647530501,0.224026699484178,0.21514698635166
"180","10_2",83,"10","Female",26,"Stim\r07y14g27b22.jpeg","Stim\r05y28g23b30.jpeg",7,5,14,28,27,23,22,30,-1,1,2.128,2,"grøn","10_9",-4,0,"Right_lead","Male","Female","left",0.259407647530501,0.224026699484178,0.218517045594358
"181","10_2",84,"10","Female",26,"Stim\r09y06g26b32.jpeg","Stim\r22y02g34b05.jpeg",9,22,6,2,26,34,32,5,1,1,1.405,2,"grøn","10_9",8,1,"Agree",NA,NA,"left",0.259407647530501,0.224026699484178,0.216844398443292
"182","10_2",85,"10","Female",26,"Stim\r04y28g27b06.jpeg","Stim\r11y26g25b38.jpeg",4,11,28,26,27,25,6,38,-3,1,1.254,2,"grøn","10_9",-2,0,"Left_lead","Female","Male","left",0.259407647530501,0.224026699484178,0.209865508042606
"183","10_2",86,"10","Female",26,"Stim\r03y03g02b05.jpeg","Stim\r16y21g04b04.jpeg",3,16,3,21,2,4,5,4,2,1,0.748,2,"grøn","10_9",2,1,"Agree",NA,NA,"left",0.259407647530501,0.224026699484178,0.221909324741861
"184","10_2",87,"10","Female",26,"Stim\r19y15g35b05.jpeg","Stim\r10y02g36b05.jpeg",19,10,15,2,35,36,5,5,-1,0,3.637,2,"grøn","10_9",1,0,"Agree",NA,NA,"left",0.259407647530501,0.224026699484178,0.24023596300241
"185","10_2",88,"10","Female",26,"Stim\r09y07g06b09.jpeg","Stim\r05y09g02b34.jpeg",9,5,7,9,6,2,9,34,-1,1,0.979,2,"grøn","10_9",-4,0,"Left_lead","Female","Male","left",0.259407647530501,0.224026699484178,0.241545567424073
"186","10_2",89,"10","Female",26,"Stim\r01y27g01b01.jpeg","Stim\r22y35g09b11.jpeg",1,22,27,35,1,9,1,11,2,1,0.826,2,"grøn","10_9",8,1,"Agree",NA,NA,"left",0.259407647530501,0.224026699484178,0.256661952293618
"187","10_2",90,"10","Female",26,"Stim\r15y16g12b03.jpeg","Stim\r14y08g21b39.jpeg",15,14,16,8,12,21,3,39,4,1,1.148,2,"grøn","10_9",9,1,"Agree",NA,NA,"left",0.259407647530501,0.224026699484178,0.253756583224442
"188","10_2",91,"10","Female",26,"Stim\r04y16g13b13.jpeg","Stim\r21y24g16b04.jpeg",4,21,16,24,13,16,13,4,1,1,0.96,2,"grøn","10_9",3,1,"Left_lead","Female","Male","left",0.259407647530501,0.224026699484178,0.256660547423967
"189","10_2",92,"10","Female",26,"Stim\r09y17g32b21.jpeg","Stim\r11y26g25b38.jpeg",9,11,17,26,32,25,21,38,-1,1,0.853,2,"grøn","10_9",-7,0,"Agree",NA,NA,"left",0.259407647530501,0.224026699484178,0.262959662932652
"190","10_2",93,"10","Female",26,"Stim\r12y07g07b17.jpeg","Stim\r08y23g10b29.jpeg",12,8,7,23,7,10,17,29,-1,0,1.748,2,"grøn","10_9",3,0,"Right_lead","Male","Female","left",0.259407647530501,0.224026699484178,0.246472844076414
"191","10_2",94,"10","Female",26,"Stim\r13y21g23b09.jpeg","Stim\r08y12g20b03.jpeg",13,8,21,12,23,20,9,3,2,0,1.023,2,"grøn","10_9",-3,1,"Left_lead","Female","Male","left",0.259407647530501,0.224026699484178,0.245095468425071
"192","10_2",95,"10","Female",26,"Stim\r22y23g20b06.jpeg","Stim\r17y22g16b15.jpeg",22,17,23,22,20,16,6,15,1,0,1.022,2,"grøn","10_9",-4,1,"Agree",NA,NA,"left",0.259407647530501,0.224026699484178,0.237605438669801
"193","10_2",96,"10","Female",26,"Stim\r10y07g11b10.jpeg","Stim\r08y12g20b03.jpeg",10,8,7,12,11,20,10,3,3,1,1.18,2,"grøn","10_9",9,1,"Left_lead","Female","Male","left",0.259407647530501,0.224026699484178,0.235802341533722
"194","12_2",1,"12","Female",24,"Stim\r05y40g33b16.jpeg","Stim\r14y20g16b10.jpeg",5,14,40,20,33,16,16,10,2,1,1.302,2,"rød","12_11",9,1,"Agree",NA,NA,"left",0.406059892585172,0.213013104756036,NA
"195","12_2",2,"12","Female",24,"Stim\r14y08g21b39.jpeg","Stim\r18y13g28b06.jpeg",14,18,8,13,21,28,39,6,2,1,1.07,2,"rød","12_11",4,1,"Left_lead","Female","Male","left",0.406059892585172,0.213013104756036,NA
"196","12_2",3,"12","Female",24,"Stim\r11y10g06b19.jpeg","Stim\r09y06g26b32.jpeg",11,9,10,6,6,26,19,32,1,0,1.874,2,"rød","12_11",-2,1,"Left_lead","Female","Male","left",0.406059892585172,0.213013104756036,NA
"197","12_2",4,"12","Female",24,"Stim\r12y07g16b25.jpeg","Stim\r08y23g10b29.jpeg",12,8,7,23,16,10,25,29,-1,1,1.06,2,"rød","12_11",-4,0,"Agree",NA,NA,"left",0.406059892585172,0.213013104756036,NA
"198","12_2",5,"12","Female",24,"Stim\r10y02g36b05.jpeg","Stim\r14y12g04b29.jpeg",10,14,2,12,36,4,5,29,1,1,2.002,2,"rød","12_11",4,1,"Agree",NA,NA,"left",0.406059892585172,0.213013104756036,NA
"199","12_2",6,"12","Female",24,"Stim\r14y20g16b10.jpeg","Stim\r11y14g08b23.jpeg",14,11,20,14,16,8,10,23,-2,1,0.868,2,"rød","12_11",-3,0,"Agree",NA,NA,"left",0.406059892585172,0.213013104756036,NA
"200","12_2",7,"12","Female",24,"Stim\r07y14g27b22.jpeg","Stim\r05y09g02b34.jpeg",7,5,14,9,27,2,22,34,1,0,1.791,2,"rød","12_11",-2,1,"Agree",NA,NA,"left",0.406059892585172,0.213013104756036,NA
"201","12_2",8,"12","Female",24,"Stim\r09y17g32b21.jpeg","Stim\r13y33g08b23.jpeg",9,13,17,33,32,8,21,23,1,1,2.503,2,"rød","12_11",4,1,"Left_lead","Female","Male","left",0.406059892585172,0.213013104756036,NA
"202","12_2",9,"12","Female",24,"Stim\r22y23g20b06.jpeg","Stim\r18y13g28b06.jpeg",22,18,23,13,20,28,6,6,-2,1,1.218,2,"rød","12_11",-4,0,"Agree",NA,NA,"left",0.406059892585172,0.213013104756036,NA
"203","12_2",10,"12","Female",24,"Stim\r15y05g12b10.jpeg","Stim\r16y09g06b10.jpeg",15,16,5,9,12,6,10,10,-3,0,1.157,2,"rød","12_11",1,0,"Agree",NA,NA,"left",0.406059892585172,0.213013104756036,0.216217789079004
"204","12_2",11,"12","Female",24,"Stim\r21y01g04b27.jpeg","Stim\r18y13g28b06.jpeg",21,18,1,13,4,28,27,6,1,0,1.925,2,"rød","12_11",-3,1,"Left_lead","Female","Male","left",0.406059892585172,0.213013104756036,0.193378971618642
"205","12_2",12,"12","Female",24,"Stim\r03y11g01b26.jpeg","Stim\r10y02g36b05.jpeg",3,10,11,2,1,36,26,5,4,1,1.833,2,"rød","12_11",7,1,"Agree",NA,NA,"left",0.406059892585172,0.213013104756036,0.212288934434307
"206","12_2",13,"12","Female",24,"Stim\r19y10g06b15.jpeg","Stim\r21y31g06b08.jpeg",19,21,10,31,6,6,15,8,-4,0,1.284,2,"rød","12_11",2,0,"Agree",NA,NA,"left",0.406059892585172,0.213013104756036,0.20035321346605
"207","12_2",14,"12","Female",24,"Stim\r10y07g11b10.jpeg","Stim\r14y10g15b15.jpeg",10,14,7,10,11,15,10,15,-1,0,1.088,2,"rød","12_11",4,0,"Right_lead","Male","Female","left",0.406059892585172,0.213013104756036,0.200266125247789
"208","12_2",15,"12","Female",24,"Stim\r22y35g09b11.jpeg","Stim\r21y31g06b08.jpeg",22,21,35,31,9,6,11,8,-4,1,1.22,2,"rød","12_11",-1,0,"Agree",NA,NA,"left",0.406059892585172,0.213013104756036,0.214388911263751
"209","12_2",16,"12","Female",24,"Stim\r03y03g02b05.jpeg","Stim\r02y10g14b11.jpeg",3,2,3,10,2,14,5,11,1,0,1.211,2,"rød","12_11",-1,1,"Agree",NA,NA,"left",0.406059892585172,0.213013104756036,0.197127091260138
"210","12_2",17,"12","Female",24,"Stim\r04y28g27b06.jpeg","Stim\r08y09g09b11.jpeg",4,8,28,9,27,9,6,11,1,1,1.168,2,"rød","12_11",4,1,"Agree",NA,NA,"left",0.406059892585172,0.213013104756036,0.205388618328594
"211","12_2",18,"12","Female",24,"Stim\r14y12g04b29.jpeg","Stim\r17y20g40b07.jpeg",14,17,12,20,4,40,29,7,1,1,1.894,2,"rød","12_11",3,1,"Left_lead","Female","Male","left",0.406059892585172,0.213013104756036,0.217774717059083
"212","12_2",19,"12","Female",24,"Stim\r15y17g24b30.jpeg","Stim\r16y21g04b04.jpeg",15,16,17,21,24,4,30,4,2,1,1.412,2,"rød","12_11",1,1,"Agree",NA,NA,"left",0.406059892585172,0.213013104756036,0.212227025185134
"213","12_2",20,"12","Female",24,"Stim\r10y03g03b07.jpeg","Stim\r06y36g16b14.jpeg",10,6,3,36,3,16,7,14,-3,1,1.178,2,"rød","12_11",-4,0,"Agree",NA,NA,"left",0.406059892585172,0.213013104756036,0.220616702986364
"214","12_2",21,"12","Female",24,"Stim\r17y22g16b15.jpeg","Stim\r13y21g23b09.jpeg",17,13,22,21,16,23,15,9,1,0,1.435,2,"rød","12_11",-4,1,"Left_lead","Female","Male","left",0.406059892585172,0.213013104756036,0.225985707268372
"215","12_2",22,"12","Female",24,"Stim\r21y24g16b04.jpeg","Stim\r17y20g40b07.jpeg",21,17,24,20,16,40,4,7,-1,1,1.697,2,"rød","12_11",-4,0,"Agree",NA,NA,"left",0.406059892585172,0.213013104756036,0.226000521853753
"216","12_2",23,"12","Female",24,"Stim\r06y19g29b08.jpeg","Stim\r05y28g23b30.jpeg",6,5,19,28,29,23,8,30,2,0,1.099,2,"rød","12_11",-1,1,"Right_lead","Male","Female","left",0.406059892585172,0.213013104756036,0.228728479459388
"217","12_2",24,"12","Female",24,"Stim\r03y06g12b09.jpeg","Stim\r06y19g29b08.jpeg",3,6,6,19,12,29,9,8,1,1,4.962,2,"rød","12_11",3,1,"Agree",NA,NA,"left",0.406059892585172,0.213013104756036,0.235021747237733
"218","12_2",25,"12","Female",24,"Stim\r21y24g16b04.jpeg","Stim\r17y20g40b07.jpeg",21,17,24,20,16,40,4,7,2,1,0.937,2,"blå","12_11",3,1,"Agree",NA,NA,"left",0.406059892585172,0.213013104756036,0.234096278759184
"219","12_2",26,"12","Female",24,"Stim\r20y04g39b23.jpeg","Stim\r06y14g31b25.jpeg",20,6,4,14,39,31,23,25,4,1,1.583,2,"blå","12_11",2,1,"Agree",NA,NA,"left",0.406059892585172,0.213013104756036,0.241285014647753
"220","12_2",27,"12","Female",24,"Stim\r20y14g02b19.jpeg","Stim\r04y39g24b15.jpeg",20,4,14,39,2,24,19,15,4,0,1.315,2,"blå","12_11",-4,1,"Right_lead","Male","Female","left",0.406059892585172,0.213013104756036,0.2166456152095
"221","12_2",28,"12","Female",24,"Stim\r10y13g07b36.jpeg","Stim\r15y17g24b30.jpeg",10,15,13,17,7,24,36,30,3,0,1.037,2,"blå","12_11",-6,1,"Right_lead","Male","Female","left",0.406059892585172,0.213013104756036,0.198664450009456
"222","12_2",29,"12","Female",24,"Stim\r07y06g08b05.jpeg","Stim\r18y13g28b06.jpeg",7,18,6,13,8,28,5,6,1,1,1.567,2,"blå","12_11",1,1,"Left_lead","Female","Male","left",0.406059892585172,0.213013104756036,0.197282596961304
"223","12_2",30,"12","Female",24,"Stim\r22y23g20b06.jpeg","Stim\r16y21g04b04.jpeg",22,16,23,21,20,4,6,4,1,0,1.572,2,"blå","12_11",-2,1,"Right_lead","Male","Female","left",0.406059892585172,0.213013104756036,0.200726722849211
"224","12_2",31,"12","Female",24,"Stim\r13y33g08b23.jpeg","Stim\r06y14g31b25.jpeg",13,6,33,14,8,31,23,25,3,1,1.171,2,"blå","12_11",2,1,"Agree",NA,NA,"left",0.406059892585172,0.213013104756036,0.203844945007155
"225","12_2",32,"12","Female",24,"Stim\r09y02g05b02.jpeg","Stim\r03y06g12b09.jpeg",9,3,2,6,5,12,2,9,4,1,1.32,2,"blå","12_11",7,1,"Agree",NA,NA,"left",0.406059892585172,0.213013104756036,0.203436287145529
"226","12_2",33,"12","Female",24,"Stim\r01y27g01b01.jpeg","Stim\r10y03g03b07.jpeg",1,10,27,3,1,3,1,7,3,1,1.088,2,"blå","12_11",6,1,"Agree",NA,NA,"left",0.406059892585172,0.213013104756036,0.200843609416229
"227","12_2",34,"12","Female",24,"Stim\r17y20g40b07.jpeg","Stim\r13y21g23b09.jpeg",17,13,20,21,40,23,7,9,4,1,1.301,2,"blå","12_11",2,1,"Agree",NA,NA,"left",0.406059892585172,0.213013104756036,0.191592829332424
"228","12_2",35,"12","Female",24,"Stim\r11y13g22b35.jpeg","Stim\r21y03g15b37.jpeg",11,21,13,3,22,15,35,37,-1,0,1.622,2,"blå","12_11",2,0,"Left_lead","Female","Male","left",0.406059892585172,0.213013104756036,0.17270952665356
"229","12_2",36,"12","Female",24,"Stim\r03y03g02b05.jpeg","Stim\r22y23g20b06.jpeg",3,22,3,23,2,20,5,6,2,1,0.955,2,"blå","12_11",1,1,"Agree",NA,NA,"left",0.406059892585172,0.213013104756036,0.161270991899091
"230","12_2",37,"12","Female",24,"Stim\r11y10g06b19.jpeg","Stim\r05y40g33b16.jpeg",11,5,10,40,6,33,19,16,1,0,1.444,2,"blå","12_11",-3,1,"Right_lead","Male","Female","left",0.406059892585172,0.213013104756036,0.166304819000119
"231","12_2",38,"12","Female",24,"Stim\r17y07g07b24.jpeg","Stim\r12y07g16b25.jpeg",17,12,7,7,7,16,24,25,-2,0,0.952,2,"blå","12_11",1,0,"Right_lead","Male","Female","left",0.406059892585172,0.213013104756036,0.165777890012108
"232","12_2",39,"12","Female",24,"Stim\r05y40g33b16.jpeg","Stim\r17y22g16b15.jpeg",5,17,40,22,33,16,16,15,2,0,1.285,2,"blå","12_11",-1,1,"Agree",NA,NA,"left",0.406059892585172,0.213013104756036,0.152861132629198
"233","12_2",40,"12","Female",24,"Stim\r04y28g27b06.jpeg","Stim\r22y02g34b05.jpeg",4,22,28,2,27,34,6,5,1,0,1.028,2,"blå","12_11",-1,1,"Agree",NA,NA,"left",0.406059892585172,0.213013104756036,0.153065940303504
"234","12_2",41,"12","Female",24,"Stim\r17y11g38b07.jpeg","Stim\r10y02g36b05.jpeg",17,10,11,2,38,36,7,5,1,0,0.999,2,"blå","12_11",-2,1,"Right_lead","Male","Female","left",0.406059892585172,0.213013104756036,0.155480596706244
"235","12_2",42,"12","Female",24,"Stim\r17y12g19b18.jpeg","Stim\r05y40g33b16.jpeg",17,5,12,40,19,33,18,16,1,0,1.532,2,"blå","12_11",-2,1,"Agree",NA,NA,"left",0.406059892585172,0.213013104756036,0.151048386416429
"236","12_2",43,"12","Female",24,"Stim\r02y19g24b04.jpeg","Stim\r08y09g09b11.jpeg",2,8,19,9,24,9,4,11,1,1,1.035,2,"blå","12_11",7,1,"Agree",NA,NA,"left",0.406059892585172,0.213013104756036,0.147219456960931
"237","12_2",44,"12","Female",24,"Stim\r12y07g07b17.jpeg","Stim\r10y27g22b14.jpeg",12,10,7,27,7,22,17,14,-3,1,1.135,2,"blå","12_11",-3,0,"Agree",NA,NA,"left",0.406059892585172,0.213013104756036,0.16412715745458
"238","12_2",45,"12","Female",24,"Stim\r22y02g34b05.jpeg","Stim\r15y16g12b03.jpeg",22,15,2,16,34,12,5,3,-2,1,1.027,2,"blå","12_11",-2,0,"Agree",NA,NA,"left",0.406059892585172,0.213013104756036,0.171400714218727
"239","12_2",46,"12","Female",24,"Stim\r10y03g03b07.jpeg","Stim\r10y02g36b05.jpeg",10,10,3,2,3,36,7,5,-1,1,1.118,2,"blå","12_11",-2,0,"Agree",NA,NA,"left",0.406059892585172,0.213013104756036,0.181094133141438
"240","12_2",47,"12","Female",24,"Stim\r06y14g31b25.jpeg","Stim\r14y12g04b29.jpeg",6,14,14,12,31,4,25,29,-1,0,1.719,2,"blå","12_11",4,0,"Right_lead","Male","Female","left",0.406059892585172,0.213013104756036,0.181213172400123
"241","12_2",48,"12","Female",24,"Stim\r11y14g08b23.jpeg","Stim\r11y10g06b19.jpeg",11,11,14,10,8,6,23,19,1,0,4.497,2,"blå","12_11",-4,1,"Right_lead","Male","Female","left",0.406059892585172,0.213013104756036,0.173782141699616
"242","12_2",49,"12","Female",24,"Stim\r07y02g03b06.jpeg","Stim\r19y10g06b15.jpeg",7,19,2,10,3,6,6,15,4,1,1.451,2,"gul","12_11",8,1,"Right_lead","Male","Female","left",0.406059892585172,0.213013104756036,0.181901951098357
"243","12_2",50,"12","Female",24,"Stim\r15y05g12b10.jpeg","Stim\r06y14g31b25.jpeg",15,6,5,14,12,31,10,25,2,1,1.087,2,"gul","12_11",9,1,"Agree",NA,NA,"left",0.406059892585172,0.213013104756036,0.188839159603475
"244","12_2",51,"12","Female",24,"Stim\r21y31g06b08.jpeg","Stim\r10y27g22b14.jpeg",21,10,31,27,6,22,8,14,2,0,1.241,2,"gul","12_11",-4,1,"Right_lead","Male","Female","left",0.406059892585172,0.213013104756036,0.183884009818229
"245","12_2",52,"12","Female",24,"Stim\r10y02g36b05.jpeg","Stim\r21y03g15b37.jpeg",10,21,2,3,36,15,5,37,2,1,1.081,2,"gul","12_11",1,1,"Agree",NA,NA,"left",0.406059892585172,0.213013104756036,0.18297045700668
"246","12_2",53,"12","Female",24,"Stim\r22y35g09b11.jpeg","Stim\r21y31g06b08.jpeg",22,21,35,31,9,6,11,8,-4,1,1.087,2,"gul","12_11",-4,0,"Agree",NA,NA,"left",0.406059892585172,0.213013104756036,0.194860391148053
"247","12_2",54,"12","Female",24,"Stim\r06y19g29b08.jpeg","Stim\r10y13g07b36.jpeg",6,10,19,13,29,7,8,36,2,0,0.83,2,"gul","12_11",-6,1,"Agree",NA,NA,"left",0.406059892585172,0.213013104756036,0.162566575745202
"248","12_2",55,"12","Female",24,"Stim\r05y28g23b30.jpeg","Stim\r21y31g06b08.jpeg",5,21,28,31,23,6,30,8,-4,0,1.263,2,"gul","12_11",3,0,"Agree",NA,NA,"left",0.406059892585172,0.213013104756036,0.148513968051281
"249","12_2",56,"12","Female",24,"Stim\r12y09g30b18.jpeg","Stim\r15y16g12b03.jpeg",12,15,9,16,30,12,18,3,4,1,1.398,2,"gul","12_11",7,1,"Agree",NA,NA,"left",0.406059892585172,0.213013104756036,0.13396836939129
"250","12_2",57,"12","Female",24,"Stim\r14y10g15b15.jpeg","Stim\r10y07g11b10.jpeg",14,10,10,7,15,11,15,10,-1,1,1.235,2,"gul","12_11",-3,0,"Right_lead","Male","Female","left",0.406059892585172,0.213013104756036,0.169330205007621
"251","12_2",58,"12","Female",24,"Stim\r04y28g27b06.jpeg","Stim\r10y27g22b14.jpeg",4,10,28,27,27,22,6,14,-3,1,1.434,2,"gul","12_11",-1,0,"Left_lead","Female","Male","left",0.406059892585172,0.213013104756036,0.191912433062469
"252","12_2",59,"12","Female",24,"Stim\r09y17g32b21.jpeg","Stim\r11y13g22b35.jpeg",9,11,17,13,32,22,21,35,-2,1,1.09,2,"gul","12_11",-4,0,"Agree",NA,NA,"left",0.406059892585172,0.213013104756036,0.187936739144381
"253","12_2",60,"12","Female",24,"Stim\r09y15g18b07.jpeg","Stim\r09y07g06b09.jpeg",9,9,15,7,18,6,7,9,-3,1,1.045,2,"gul","12_11",-8,0,"Agree",NA,NA,"left",0.406059892585172,0.213013104756036,0.195087156324051
"254","12_2",61,"12","Female",24,"Stim\r02y19g24b04.jpeg","Stim\r17y22g16b15.jpeg",2,17,19,22,24,16,4,15,1,1,0.885,2,"gul","12_11",3,1,"Agree",NA,NA,"left",0.406059892585172,0.213013104756036,0.20842789174958
"255","12_2",62,"12","Female",24,"Stim\r20y04g39b23.jpeg","Stim\r14y08g21b39.jpeg",20,14,4,8,39,21,23,39,4,1,1.276,2,"gul","12_11",4,1,"Agree",NA,NA,"left",0.406059892585172,0.213013104756036,0.217930562571076
"256","12_2",63,"12","Female",24,"Stim\r22y23g20b06.jpeg","Stim\r21y24g16b04.jpeg",22,21,23,24,20,16,6,4,-3,0,1.181,2,"gul","12_11",1,0,"Agree",NA,NA,"left",0.406059892585172,0.213013104756036,0.219628973644413
"257","12_2",64,"12","Female",24,"Stim\r05y09g02b34.jpeg","Stim\r11y10g06b19.jpeg",5,11,9,10,2,6,34,19,2,1,0.901,2,"gul","12_11",1,1,"Agree",NA,NA,"left",0.406059892585172,0.213013104756036,0.227801858167069
"258","12_2",65,"12","Female",24,"Stim\r09y02g05b02.jpeg","Stim\r19y10g06b15.jpeg",9,19,2,10,5,6,2,15,3,1,1.162,2,"gul","12_11",8,1,"Agree",NA,NA,"left",0.406059892585172,0.213013104756036,0.230394045489279
"259","12_2",66,"12","Female",24,"Stim\r04y39g24b15.jpeg","Stim\r10y37g07b02.jpeg",4,10,39,37,24,7,15,2,3,0,1.003,2,"gul","12_11",-2,1,"Agree",NA,NA,"left",0.406059892585172,0.213013104756036,0.226396460857291
"260","12_2",67,"12","Female",24,"Stim\r12y07g07b17.jpeg","Stim\r19y10g06b15.jpeg",12,19,7,10,7,6,17,15,1,1,0.804,2,"gul","12_11",3,1,"Agree",NA,NA,"left",0.406059892585172,0.213013104756036,0.24506747139061
"261","12_2",68,"12","Female",24,"Stim\r21y01g04b27.jpeg","Stim\r03y03g02b05.jpeg",21,3,1,3,4,2,27,5,1,1,0.812,2,"gul","12_11",2,1,"Agree",NA,NA,"left",0.406059892585172,0.213013104756036,0.24956128332527
"262","12_2",69,"12","Female",24,"Stim\r15y16g12b03.jpeg","Stim\r15y17g24b30.jpeg",15,15,16,17,12,24,3,30,-4,0,1.684,2,"gul","12_11",1,0,"Agree",NA,NA,"left",0.406059892585172,0.213013104756036,0.250781239479861
"263","12_2",70,"12","Female",24,"Stim\r01y27g01b01.jpeg","Stim\r13y33g08b23.jpeg",1,13,27,33,1,8,1,23,1,1,2.909,2,"gul","12_11",6,1,"Agree",NA,NA,"left",0.406059892585172,0.213013104756036,0.264131237384845
"264","12_2",71,"12","Female",24,"Stim\r16y09g06b10.jpeg","Stim\r04y16g13b13.jpeg",16,4,9,16,6,13,10,13,2,1,0.863,2,"gul","12_11",7,1,"Agree",NA,NA,"left",0.406059892585172,0.213013104756036,0.258420154151671
"265","12_2",72,"12","Female",24,"Stim\r13y24g05b28.jpeg","Stim\r10y27g22b14.jpeg",13,10,24,27,5,22,28,14,-1,0,0.957,2,"gul","12_11",3,0,"Left_lead","Female","Male","left",0.406059892585172,0.213013104756036,0.230376918348221
"266","12_2",73,"12","Female",24,"Stim\r21y31g06b08.jpeg","Stim\r10y37g07b02.jpeg",21,10,31,37,6,7,8,2,1,1,2.566,2,"grøn","12_11",1,1,"Right_lead","Male","Female","left",0.406059892585172,0.213013104756036,0.234931861730299
"267","12_2",74,"12","Female",24,"Stim\r07y06g08b05.jpeg","Stim\r09y02g05b02.jpeg",7,9,6,2,8,5,5,2,-1,1,0.997,2,"grøn","12_11",-3,0,"Right_lead","Male","Female","left",0.406059892585172,0.213013104756036,0.240629986004343
"268","12_2",75,"12","Female",24,"Stim\r10y03g03b07.jpeg","Stim\r16y09g06b10.jpeg",10,16,3,9,3,6,7,10,1,1,1.527,2,"grøn","12_11",3,1,"Agree",NA,NA,"left",0.406059892585172,0.213013104756036,0.241238259944224
"269","12_2",76,"12","Female",24,"Stim\r20y04g39b23.jpeg","Stim\r17y20g40b07.jpeg",20,17,4,20,39,40,23,7,-2,0,0.88,2,"grøn","12_11",1,0,"Left_lead","Female","Male","left",0.406059892585172,0.213013104756036,0.239290957990862
"270","12_2",77,"12","Female",24,"Stim\r03y11g01b26.jpeg","Stim\r20y14g02b19.jpeg",3,20,11,14,1,2,26,19,1,1,1.673,2,"grøn","12_11",1,1,"Agree",NA,NA,"left",0.406059892585172,0.213013104756036,0.211871750646597
"271","12_2",78,"12","Female",24,"Stim\r04y28g27b06.jpeg","Stim\r09y06g26b32.jpeg",4,9,28,6,27,26,6,32,-2,1,1.783,2,"grøn","12_11",-1,0,"Left_lead","Female","Male","left",0.406059892585172,0.213013104756036,0.206012601865046
"272","12_2",79,"12","Female",24,"Stim\r11y13g22b35.jpeg","Stim\r04y16g13b13.jpeg",11,4,13,16,22,13,35,13,-2,1,2.57,2,"grøn","12_11",-9,0,"Right_lead","Male","Female","left",0.406059892585172,0.213013104756036,0.208631716854891
"273","12_2",80,"12","Female",24,"Stim\r09y02g05b02.jpeg","Stim\r04y16g13b13.jpeg",9,4,2,16,5,13,2,13,2,1,1.612,2,"grøn","12_11",8,1,"Agree",NA,NA,"left",0.406059892585172,0.213013104756036,0.215268992994755
"274","12_2",81,"12","Female",24,"Stim\r09y07g06b09.jpeg","Stim\r21y03g15b37.jpeg",9,21,7,3,6,15,9,37,1,1,0.787,2,"grøn","12_11",9,1,"Agree",NA,NA,"left",0.406059892585172,0.213013104756036,0.213943441433775
"275","12_2",82,"12","Female",24,"Stim\r04y39g24b15.jpeg","Stim\r05y28g23b30.jpeg",4,5,39,28,24,23,15,30,2,0,0.946,2,"grøn","12_11",-1,1,"Agree",NA,NA,"left",0.406059892585172,0.213013104756036,0.217787615079053
"276","12_2",83,"12","Female",24,"Stim\r22y35g09b11.jpeg","Stim\r10y37g07b02.jpeg",22,10,35,37,9,7,11,2,-1,1,1.606,2,"grøn","12_11",-2,0,"Right_lead","Male","Female","left",0.406059892585172,0.213013104756036,0.215354565280056
"277","12_2",84,"12","Female",24,"Stim\r10y13g07b36.jpeg","Stim\r16y21g04b04.jpeg",10,16,13,21,7,4,36,4,-1,1,1.545,2,"grøn","12_11",-3,0,"Agree",NA,NA,"left",0.406059892585172,0.213013104756036,0.212822431927341
"278","12_2",85,"12","Female",24,"Stim\r12y09g30b18.jpeg","Stim\r22y02g34b05.jpeg",12,22,9,2,30,34,18,5,-1,0,1.132,2,"grøn","12_11",4,0,"Agree",NA,NA,"left",0.406059892585172,0.213013104756036,0.198904786215895
"279","12_2",86,"12","Female",24,"Stim\r16y09g06b10.jpeg","Stim\r05y09g02b34.jpeg",16,5,9,9,6,2,10,34,-2,1,1.085,2,"grøn","12_11",-4,0,"Agree",NA,NA,"left",0.406059892585172,0.213013104756036,0.213186966275618
"280","12_2",87,"12","Female",24,"Stim\r18y19g14b27.jpeg","Stim\r04y16g13b13.jpeg",18,4,19,16,14,13,27,13,2,0,1.37,2,"grøn","12_11",-1,1,"Left_lead","Female","Male","left",0.406059892585172,0.213013104756036,0.234363597803792
"281","12_2",88,"12","Female",24,"Stim\r22y23g20b06.jpeg","Stim\r15y17g24b30.jpeg",22,15,23,17,20,24,6,30,2,1,1.078,2,"grøn","12_11",4,1,"Agree",NA,NA,"left",0.406059892585172,0.213013104756036,0.234073185031656
"282","12_2",89,"12","Female",24,"Stim\r17y22g16b15.jpeg","Stim\r22y23g20b06.jpeg",17,22,22,23,16,20,15,6,1,1,0.795,2,"grøn","12_11",4,1,"Right_lead","Male","Female","left",0.406059892585172,0.213013104756036,0.247582890536323
"283","12_2",90,"12","Female",24,"Stim\r21y24g16b04.jpeg","Stim\r21y03g15b37.jpeg",21,21,24,3,16,15,4,37,2,0,0.843,2,"grøn","12_11",-1,1,"Agree",NA,NA,"left",0.406059892585172,0.213013104756036,0.246679695790806
"284","12_2",91,"12","Female",24,"Stim\r17y12g19b18.jpeg","Stim\r14y08g21b39.jpeg",17,14,12,8,19,21,18,39,1,1,1.931,2,"grøn","12_11",2,1,"Agree",NA,NA,"left",0.406059892585172,0.213013104756036,0.248397231129239
"285","12_2",92,"12","Female",24,"Stim\r10y02g36b05.jpeg","Stim\r19y15g35b05.jpeg",10,19,2,15,36,35,5,5,-1,1,0.907,2,"grøn","12_11",-1,0,"Agree",NA,NA,"left",0.406059892585172,0.213013104756036,0.254635363623
"286","12_2",93,"12","Female",24,"Stim\r06y14g31b25.jpeg","Stim\r11y26g25b38.jpeg",6,11,14,26,31,25,25,38,-2,1,1.041,2,"grøn","12_11",-6,0,"Agree",NA,NA,"left",0.406059892585172,0.213013104756036,0.242140376084331
"287","12_2",94,"12","Female",24,"Stim\r14y12g04b29.jpeg","Stim\r16y09g06b10.jpeg",14,16,12,9,4,6,29,10,1,1,0.693,2,"grøn","12_11",2,1,"Agree",NA,NA,"left",0.406059892585172,0.213013104756036,0.243516616617304
"288","12_2",95,"12","Female",24,"Stim\r11y26g25b38.jpeg","Stim\r04y39g24b15.jpeg",11,4,26,39,25,24,38,15,-1,1,1.353,2,"grøn","12_11",-1,0,"Right_lead","Male","Female","left",0.406059892585172,0.213013104756036,0.244365261966419
"289","12_2",96,"12","Female",24,"Stim\r04y16g13b13.jpeg","Stim\r08y12g20b03.jpeg",4,8,16,12,13,20,13,3,2,1,0.959,2,"grøn","12_11",7,1,"Agree",NA,NA,"left",0.406059892585172,0.213013104756036,0.240566044768787
"290","13_1",1,"13","Male",23,"Stim\r12y07g07b17.jpeg","Stim\r16y21g04b04.jpeg",12,16,7,21,7,4,17,4,-2,0,3.179,1,"rød","13_14",4,0,"Agree",NA,NA,"left",-0.0147393558200618,0.214348980677473,NA
"291","13_1",2,"13","Male",23,"Stim\r14y20g16b10.jpeg","Stim\r16y21g04b04.jpeg",14,16,20,21,16,4,10,4,-2,0,4.215,1,"rød","13_14",2,0,"Right_lead","Female","Male","left",-0.0147393558200618,0.214348980677473,NA
"292","13_1",3,"13","Male",23,"Stim\r02y19g24b04.jpeg","Stim\r03y06g12b09.jpeg",2,3,19,6,24,12,4,9,-1,0,4.832,1,"rød","13_14",1,0,"Agree",NA,NA,"left",-0.0147393558200618,0.214348980677473,NA
"293","13_1",4,"13","Male",23,"Stim\r09y02g05b02.jpeg","Stim\r12y09g30b18.jpeg",9,12,2,9,5,30,2,18,-1,0,4.752,1,"rød","13_14",3,0,"Agree",NA,NA,"left",-0.0147393558200618,0.214348980677473,NA
"294","13_1",5,"13","Male",23,"Stim\r20y04g39b23.jpeg","Stim\r18y19g14b27.jpeg",20,18,4,19,39,14,23,27,1,0,8.246,1,"rød","13_14",-2,1,"Agree",NA,NA,"left",-0.0147393558200618,0.214348980677473,NA
"295","13_1",6,"13","Male",23,"Stim\r04y16g13b13.jpeg","Stim\r03y11g01b26.jpeg",4,3,16,11,13,1,13,26,-2,1,3.412,1,"rød","13_14",-1,0,"Agree",NA,NA,"left",-0.0147393558200618,0.214348980677473,NA
"296","13_1",7,"13","Male",23,"Stim\r03y06g12b09.jpeg","Stim\r07y02g03b06.jpeg",3,7,6,2,12,3,9,6,1,1,3.281,1,"rød","13_14",4,1,"Left_lead","Male","Female","left",-0.0147393558200618,0.214348980677473,NA
"297","13_1",8,"13","Male",23,"Stim\r05y28g23b30.jpeg","Stim\r09y02g05b02.jpeg",5,9,28,2,23,5,30,2,3,1,2.874,1,"rød","13_14",4,1,"Agree",NA,NA,"left",-0.0147393558200618,0.214348980677473,NA
"298","13_1",9,"13","Male",23,"Stim\r10y27g22b14.jpeg","Stim\r12y09g30b18.jpeg",10,12,27,9,22,30,14,18,-2,0,2.536,1,"rød","13_14",2,0,"Agree",NA,NA,"left",-0.0147393558200618,0.214348980677473,NA
"299","13_1",10,"13","Male",23,"Stim\r03y11g01b26.jpeg","Stim\r06y19g29b08.jpeg",3,6,11,19,1,29,26,8,2,1,3.07,1,"rød","13_14",3,1,"Agree",NA,NA,"left",-0.0147393558200618,0.214348980677473,0.191099827322729
"300","13_1",11,"13","Male",23,"Stim\r12y09g30b18.jpeg","Stim\r10y03g03b07.jpeg",12,10,9,3,30,3,18,7,2,0,3.714,1,"rød","13_14",-2,1,"Agree",NA,NA,"left",-0.0147393558200618,0.214348980677473,0.181241545226884
"301","13_1",12,"13","Male",23,"Stim\r17y12g19b18.jpeg","Stim\r08y09g09b11.jpeg",17,8,12,9,19,9,18,11,-1,1,4.915,1,"rød","13_14",-9,0,"Agree",NA,NA,"left",-0.0147393558200618,0.214348980677473,0.19813755509547
"302","13_1",13,"13","Male",23,"Stim\r21y03g15b37.jpeg","Stim\r17y12g19b18.jpeg",21,17,3,12,15,19,37,18,-3,1,4.246,1,"rød","13_14",-4,0,"Agree",NA,NA,"left",-0.0147393558200618,0.214348980677473,0.198797928552961
"303","13_1",14,"13","Male",23,"Stim\r19y10g06b15.jpeg","Stim\r22y35g09b11.jpeg",19,22,10,35,6,9,15,11,4,1,1.577,1,"rød","13_14",3,1,"Agree",NA,NA,"left",-0.0147393558200618,0.214348980677473,0.204426223547582
"304","13_1",15,"13","Male",23,"Stim\r10y13g07b36.jpeg","Stim\r16y09g06b10.jpeg",10,16,13,9,7,6,36,10,-1,0,3.901,1,"rød","13_14",6,0,"Agree",NA,NA,"left",-0.0147393558200618,0.214348980677473,0.217428249788125
"305","13_1",16,"13","Male",23,"Stim\r15y05g12b10.jpeg","Stim\r11y13g22b35.jpeg",15,11,5,13,12,22,10,35,2,0,2.846,1,"rød","13_14",-4,1,"Agree",NA,NA,"left",-0.0147393558200618,0.214348980677473,0.198330657668099
"306","13_1",17,"13","Male",23,"Stim\r17y11g38b07.jpeg","Stim\r13y33g08b23.jpeg",17,13,11,33,38,8,7,23,-2,1,3.228,1,"rød","13_14",-4,0,"Agree",NA,NA,"left",-0.0147393558200618,0.214348980677473,0.202690091487901
"307","13_1",18,"13","Male",23,"Stim\r18y13g28b06.jpeg","Stim\r12y07g16b25.jpeg",18,12,13,7,28,16,6,25,2,0,2.298,1,"rød","13_14",-6,1,"Left_lead","Male","Female","left",-0.0147393558200618,0.214348980677473,0.196618626143643
"308","13_1",19,"13","Male",23,"Stim\r10y07g11b10.jpeg","Stim\r09y15g18b07.jpeg",10,9,7,15,11,18,10,7,-1,1,2.529,1,"rød","13_14",-1,0,"Left_lead","Male","Female","left",-0.0147393558200618,0.214348980677473,0.20037639306088
"309","13_1",20,"13","Male",23,"Stim\r09y17g32b21.jpeg","Stim\r07y02g03b06.jpeg",9,7,17,2,32,3,21,6,-1,1,2.612,1,"rød","13_14",-2,0,"Agree",NA,NA,"left",-0.0147393558200618,0.214348980677473,0.20585806187521
"310","13_1",21,"13","Male",23,"Stim\r22y35g09b11.jpeg","Stim\r21y03g15b37.jpeg",22,21,35,3,9,15,11,37,-2,1,1.51,1,"rød","13_14",-1,0,"Agree",NA,NA,"left",-0.0147393558200618,0.214348980677473,0.22031217292709
"311","13_1",22,"13","Male",23,"Stim\r06y36g16b14.jpeg","Stim\r03y03g02b05.jpeg",6,3,36,3,16,2,14,5,-3,1,2.209,1,"rød","13_14",-3,0,"Agree",NA,NA,"left",-0.0147393558200618,0.214348980677473,0.222991053074095
"312","13_1",23,"13","Male",23,"Stim\r13y21g23b09.jpeg","Stim\r12y07g16b25.jpeg",13,12,21,7,23,16,9,25,3,0,1.763,1,"rød","13_14",-1,1,"Right_lead","Female","Male","left",-0.0147393558200618,0.214348980677473,0.222623588564678
"313","13_1",24,"13","Male",23,"Stim\r10y37g07b02.jpeg","Stim\r13y21g23b09.jpeg",10,13,37,21,7,23,2,9,-1,0,2.93,1,"rød","13_14",3,0,"Right_lead","Female","Male","left",-0.0147393558200618,0.214348980677473,0.222989875105102
"314","13_1",25,"13","Male",23,"Stim\r03y03g02b05.jpeg","Stim\r10y07g11b10.jpeg",3,10,3,7,2,11,5,10,1,1,1.143,1,"rød","13_14",7,1,"Agree",NA,NA,"left",-0.0147393558200618,0.214348980677473,0.23151690852871
"315","13_1",26,"13","Male",23,"Stim\r04y28g27b06.jpeg","Stim\r10y27g22b14.jpeg",4,10,28,27,27,22,6,14,2,1,1.258,1,"blå","13_14",8,1,"Left_lead","Male","Female","left",-0.0147393558200618,0.214348980677473,0.239732508597787
"316","13_1",27,"13","Male",23,"Stim\r05y09g02b34.jpeg","Stim\r10y13g07b36.jpeg",5,10,9,13,2,7,34,36,-2,0,1.509,1,"blå","13_14",2,0,"Agree",NA,NA,"left",-0.0147393558200618,0.214348980677473,0.230940670877557
"317","13_1",28,"13","Male",23,"Stim\r02y10g14b11.jpeg","Stim\r13y21g23b09.jpeg",2,13,10,21,14,23,11,9,1,0,2.219,1,"blå","13_14",-2,1,"Agree",NA,NA,"left",-0.0147393558200618,0.214348980677473,0.237179891656567
"318","13_1",29,"13","Male",23,"Stim\r17y22g16b15.jpeg","Stim\r11y10g06b19.jpeg",17,11,22,10,16,6,15,19,1,1,3.626,1,"blå","13_14",4,1,"Agree",NA,NA,"left",-0.0147393558200618,0.214348980677473,0.232975541582775
"319","13_1",30,"13","Male",23,"Stim\r17y12g19b18.jpeg","Stim\r16y09g06b10.jpeg",17,16,12,9,19,6,18,10,-2,1,2.02,1,"blå","13_14",-8,0,"Agree",NA,NA,"left",-0.0147393558200618,0.214348980677473,0.222110474282572
"320","13_1",31,"13","Male",23,"Stim\r17y07g07b24.jpeg","Stim\r03y11g01b26.jpeg",17,3,7,11,7,1,24,26,4,1,1.619,1,"blå","13_14",2,1,"Agree",NA,NA,"left",-0.0147393558200618,0.214348980677473,0.21974932773735
"321","13_1",32,"13","Male",23,"Stim\r10y27g22b14.jpeg","Stim\r12y09g30b18.jpeg",10,12,27,9,22,30,14,18,-2,0,1.989,1,"blå","13_14",4,0,"Right_lead","Female","Male","left",-0.0147393558200618,0.214348980677473,0.210538198703145
"322","13_1",33,"13","Male",23,"Stim\r18y19g14b27.jpeg","Stim\r05y28g23b30.jpeg",18,5,19,28,14,23,27,30,2,1,3.325,1,"blå","13_14",3,1,"Left_lead","Male","Female","left",-0.0147393558200618,0.214348980677473,0.203696465862492
"323","13_1",34,"13","Male",23,"Stim\r16y09g06b10.jpeg","Stim\r04y28g27b06.jpeg",16,4,9,28,6,27,10,6,-1,1,4.401,1,"blå","13_14",-4,0,"Agree",NA,NA,"left",-0.0147393558200618,0.214348980677473,0.206944142794598
"324","13_1",35,"13","Male",23,"Stim\r17y20g40b07.jpeg","Stim\r10y02g36b05.jpeg",17,10,20,2,40,36,7,5,-2,1,1.744,1,"blå","13_14",-2,0,"Agree",NA,NA,"left",-0.0147393558200618,0.214348980677473,0.203509366241427
"325","13_1",36,"13","Male",23,"Stim\r07y06g08b05.jpeg","Stim\r15y16g12b03.jpeg",7,15,6,16,8,12,5,3,-2,1,2.871,1,"blå","13_14",-2,0,"Agree",NA,NA,"left",-0.0147393558200618,0.214348980677473,0.18609662274101
"326","13_1",37,"13","Male",23,"Stim\r09y07g06b09.jpeg","Stim\r22y35g09b11.jpeg",9,22,7,35,6,9,9,11,-2,0,1.871,1,"blå","13_14",2,0,"Left_lead","Male","Female","left",-0.0147393558200618,0.214348980677473,0.174488975559347
"327","13_1",38,"13","Male",23,"Stim\r14y10g15b15.jpeg","Stim\r20y14g02b19.jpeg",14,20,10,14,15,2,15,19,-1,0,1.856,1,"blå","13_14",4,0,"Agree",NA,NA,"left",-0.0147393558200618,0.214348980677473,0.156250727473481
"328","13_1",39,"13","Male",23,"Stim\r12y09g30b18.jpeg","Stim\r09y17g32b21.jpeg",12,9,9,17,30,32,18,21,2,1,1.171,1,"blå","13_14",3,1,"Left_lead","Male","Female","left",-0.0147393558200618,0.214348980677473,0.154089091150282
"329","13_1",40,"13","Male",23,"Stim\r15y16g12b03.jpeg","Stim\r22y23g20b06.jpeg",15,22,16,23,12,20,3,6,1,1,2.078,1,"blå","13_14",3,1,"Right_lead","Female","Male","left",-0.0147393558200618,0.214348980677473,0.151148691127795
"330","13_1",41,"13","Male",23,"Stim\r17y11g38b07.jpeg","Stim\r06y19g29b08.jpeg",17,6,11,19,38,29,7,8,1,1,6.864,1,"blå","13_14",1,1,"Right_lead","Female","Male","left",-0.0147393558200618,0.214348980677473,0.157491042216322
"331","13_1",42,"13","Male",23,"Stim\r21y01g04b27.jpeg","Stim\r15y17g24b30.jpeg",21,15,1,17,4,24,27,30,1,1,2.188,1,"blå","13_14",3,1,"Right_lead","Female","Male","left",-0.0147393558200618,0.214348980677473,0.158161965169633
"332","13_1",43,"13","Male",23,"Stim\r08y23g10b29.jpeg","Stim\r11y13g22b35.jpeg",8,11,23,13,10,22,29,35,1,1,4.251,1,"blå","13_14",6,1,"Agree",NA,NA,"left",-0.0147393558200618,0.214348980677473,0.161142787742915
"333","13_1",44,"13","Male",23,"Stim\r20y14g02b19.jpeg","Stim\r05y40g33b16.jpeg",20,5,14,40,2,33,19,16,-2,1,2.363,1,"blå","13_14",-3,0,"Agree",NA,NA,"left",-0.0147393558200618,0.214348980677473,0.172724136887813
"334","13_1",45,"13","Male",23,"Stim\r09y02g05b02.jpeg","Stim\r22y23g20b06.jpeg",9,22,2,23,5,20,2,6,2,1,2.826,1,"blå","13_14",4,1,"Agree",NA,NA,"left",-0.0147393558200618,0.214348980677473,0.174177135046948
"335","13_1",46,"13","Male",23,"Stim\r10y07g11b10.jpeg","Stim\r13y21g23b09.jpeg",10,13,7,21,11,23,10,9,-3,1,3.734,1,"blå","13_14",-1,0,"Agree",NA,NA,"left",-0.0147393558200618,0.214348980677473,0.187016189895716
"336","13_1",47,"13","Male",23,"Stim\r09y06g26b32.jpeg","Stim\r05y28g23b30.jpeg",9,5,6,28,26,23,32,30,-2,1,2.39,1,"blå","13_14",-2,0,"Right_lead","Female","Male","left",-0.0147393558200618,0.214348980677473,0.189303082227389
"337","13_1",48,"13","Male",23,"Stim\r11y14g08b23.jpeg","Stim\r12y12g14b26.jpeg",11,12,14,12,8,14,23,26,3,1,5.236,1,"blå","13_14",3,1,"Left_lead","Male","Female","left",-0.0147393558200618,0.214348980677473,0.192030178624285
"338","13_1",49,"13","Male",23,"Stim\r03y06g12b09.jpeg","Stim\r22y35g09b11.jpeg",3,22,6,35,12,9,9,11,2,1,2.471,1,"blå","13_14",2,1,"Right_lead","Female","Male","left",-0.0147393558200618,0.214348980677473,0.204418575413836
"339","13_1",50,"13","Male",23,"Stim\r17y20g40b07.jpeg","Stim\r02y19g24b04.jpeg",17,2,20,19,40,24,7,4,-1,1,1.464,1,"gul","13_14",-1,0,"Agree",NA,NA,"left",-0.0147393558200618,0.214348980677473,0.21982845601607
"340","13_1",51,"13","Male",23,"Stim\r12y07g16b25.jpeg","Stim\r03y06g12b09.jpeg",12,3,7,6,16,12,25,9,3,0,2.664,1,"gul","13_14",-1,1,"Right_lead","Female","Male","left",-0.0147393558200618,0.214348980677473,0.237156695686315
"341","13_1",52,"13","Male",23,"Stim\r05y40g33b16.jpeg","Stim\r04y39g24b15.jpeg",5,4,40,39,33,24,16,15,1,0,1.863,1,"gul","13_14",-1,1,"Agree",NA,NA,"left",-0.0147393558200618,0.214348980677473,0.207696240107917
"342","13_1",53,"13","Male",23,"Stim\r18y19g14b27.jpeg","Stim\r08y23g10b29.jpeg",18,8,19,23,14,10,27,29,-1,0,1.731,1,"gul","13_14",4,0,"Left_lead","Male","Female","left",-0.0147393558200618,0.214348980677473,0.212936134440548
"343","13_1",54,"13","Male",23,"Stim\r08y09g09b11.jpeg","Stim\r18y13g28b06.jpeg",8,18,9,13,9,28,11,6,-1,0,2.727,1,"gul","13_14",4,0,"Agree",NA,NA,"left",-0.0147393558200618,0.214348980677473,0.179488201519342
"344","13_1",55,"13","Male",23,"Stim\r15y17g24b30.jpeg","Stim\r15y16g12b03.jpeg",15,15,17,16,24,12,30,3,1,0,2.486,1,"gul","13_14",-1,1,"Agree",NA,NA,"left",-0.0147393558200618,0.214348980677473,0.167558705840983
"345","13_1",56,"13","Male",23,"Stim\r16y09g06b10.jpeg","Stim\r09y07g06b09.jpeg",16,9,9,7,6,6,10,9,-1,1,2.831,1,"gul","13_14",-2,0,"Right_lead","Female","Male","left",-0.0147393558200618,0.214348980677473,0.162258305344288
"346","13_1",57,"13","Male",23,"Stim\r03y11g01b26.jpeg","Stim\r17y07g07b24.jpeg",3,17,11,7,1,7,26,24,1,0,3.654,1,"gul","13_14",-4,1,"Agree",NA,NA,"left",-0.0147393558200618,0.214348980677473,0.128349507501545
"347","13_1",58,"13","Male",23,"Stim\r20y14g02b19.jpeg","Stim\r16y21g04b04.jpeg",20,16,14,21,2,4,19,4,2,1,1.272,1,"gul","13_14",7,1,"Agree",NA,NA,"left",-0.0147393558200618,0.214348980677473,0.154372317197534
"348","13_1",59,"13","Male",23,"Stim\r02y10g14b11.jpeg","Stim\r03y06g12b09.jpeg",2,3,10,6,14,12,11,9,-2,1,1.196,1,"gul","13_14",-4,0,"Agree",NA,NA,"left",-0.0147393558200618,0.214348980677473,0.173880440399058
"349","13_1",60,"13","Male",23,"Stim\r14y12g04b29.jpeg","Stim\r20y14g02b19.jpeg",14,20,12,14,4,2,29,19,-2,0,2.998,1,"gul","13_14",2,0,"Agree",NA,NA,"left",-0.0147393558200618,0.214348980677473,0.169416017805382
"350","13_1",61,"13","Male",23,"Stim\r22y02g34b05.jpeg","Stim\r21y01g04b27.jpeg",22,21,2,1,34,4,5,27,-1,1,1.547,1,"gul","13_14",-1,0,"Agree",NA,NA,"left",-0.0147393558200618,0.214348980677473,0.187491802017089
"351","13_1",62,"13","Male",23,"Stim\r07y02g03b06.jpeg","Stim\r10y03g03b07.jpeg",7,10,2,3,3,3,6,7,2,1,4.009,1,"gul","13_14",1,1,"Agree",NA,NA,"left",-0.0147393558200618,0.214348980677473,0.199575583409738
"352","13_1",63,"13","Male",23,"Stim\r13y21g23b09.jpeg","Stim\r18y19g14b27.jpeg",13,18,21,19,23,14,9,27,-4,1,1.667,1,"gul","13_14",-2,0,"Left_lead","Male","Female","left",-0.0147393558200618,0.214348980677473,0.213736535148987
"353","13_1",64,"13","Male",23,"Stim\r05y09g02b34.jpeg","Stim\r12y07g07b17.jpeg",5,12,9,7,2,7,34,17,2,0,1.583,1,"gul","13_14",-2,1,"Agree",NA,NA,"left",-0.0147393558200618,0.214348980677473,0.213591127344442
"354","13_1",65,"13","Male",23,"Stim\r08y23g10b29.jpeg","Stim\r13y21g23b09.jpeg",8,13,23,21,10,23,29,9,-2,1,1.221,1,"gul","13_14",-2,0,"Agree",NA,NA,"left",-0.0147393558200618,0.214348980677473,0.217314063428443
"355","13_1",66,"13","Male",23,"Stim\r09y07g06b09.jpeg","Stim\r07y14g27b22.jpeg",9,7,7,14,6,27,9,22,2,1,2.58,1,"gul","13_14",7,1,"Left_lead","Male","Female","left",-0.0147393558200618,0.214348980677473,0.220732775465927
"356","13_1",67,"13","Male",23,"Stim\r07y14g27b22.jpeg","Stim\r11y13g22b35.jpeg",7,11,14,13,27,22,22,35,-1,1,1.127,1,"gul","13_14",-1,0,"Left_lead","Male","Female","left",-0.0147393558200618,0.214348980677473,0.239596455565852
"357","13_1",68,"13","Male",23,"Stim\r19y15g35b05.jpeg","Stim\r20y14g02b19.jpeg",19,20,15,14,35,2,5,19,-1,1,1.481,1,"gul","13_14",-1,0,"Agree",NA,NA,"left",-0.0147393558200618,0.214348980677473,0.241663632409754
"358","13_1",69,"13","Male",23,"Stim\r17y22g16b15.jpeg","Stim\r14y20g16b10.jpeg",17,14,22,20,16,16,15,10,-3,1,1.526,1,"gul","13_14",-2,0,"Right_lead","Female","Male","left",-0.0147393558200618,0.214348980677473,0.243700300626029
"359","13_1",70,"13","Male",23,"Stim\r21y03g15b37.jpeg","Stim\r03y11g01b26.jpeg",21,3,3,11,15,1,37,26,2,1,4.022,1,"gul","13_14",8,1,"Left_lead","Male","Female","left",-0.0147393558200618,0.214348980677473,0.265309687046214
"360","13_1",71,"13","Male",23,"Stim\r11y26g25b38.jpeg","Stim\r05y28g23b30.jpeg",11,5,26,28,25,23,38,30,-2,0,1.303,1,"gul","13_14",2,0,"Left_lead","Male","Female","left",-0.0147393558200618,0.214348980677473,0.251075959440856
"361","13_1",72,"13","Male",23,"Stim\r12y12g14b26.jpeg","Stim\r11y14g08b23.jpeg",12,11,12,14,14,8,26,23,-1,0,2.65,1,"gul","13_14",2,0,"Agree",NA,NA,"left",-0.0147393558200618,0.214348980677473,0.238886464642303
"362","13_1",73,"13","Male",23,"Stim\r09y17g32b21.jpeg","Stim\r06y14g31b25.jpeg",9,6,17,14,32,31,21,25,-4,1,2.727,1,"gul","13_14",-3,0,"Agree",NA,NA,"left",-0.0147393558200618,0.214348980677473,0.238363969113856
"363","13_1",74,"13","Male",23,"Stim\r08y12g20b03.jpeg","Stim\r09y06g26b32.jpeg",8,9,12,6,20,26,3,32,2,1,1.158,1,"grøn","13_14",6,1,"Agree",NA,NA,"left",-0.0147393558200618,0.214348980677473,0.252711835321548
"364","13_1",75,"13","Male",23,"Stim\r12y12g14b26.jpeg","Stim\r15y16g12b03.jpeg",12,15,12,16,14,12,26,3,-2,1,2.029,1,"grøn","13_14",-2,0,"Right_lead","Female","Male","left",-0.0147393558200618,0.214348980677473,0.252205046872505
"365","13_1",76,"13","Male",23,"Stim\r09y02g05b02.jpeg","Stim\r21y01g04b27.jpeg",9,21,2,1,5,4,2,27,1,0,3.599,1,"grøn","13_14",-1,1,"Agree",NA,NA,"left",-0.0147393558200618,0.214348980677473,0.242591386941366
"366","13_1",77,"13","Male",23,"Stim\r14y12g04b29.jpeg","Stim\r12y07g07b17.jpeg",14,12,12,7,4,7,29,17,1,1,1.311,1,"grøn","13_14",3,1,"Right_lead","Female","Male","left",-0.0147393558200618,0.214348980677473,0.214691574915023
"367","13_1",78,"13","Male",23,"Stim\r15y17g24b30.jpeg","Stim\r11y26g25b38.jpeg",15,11,17,26,24,25,30,38,-4,0,2.478,1,"grøn","13_14",1,0,"Agree",NA,NA,"left",-0.0147393558200618,0.214348980677473,0.206093241893398
"368","13_1",79,"13","Male",23,"Stim\r11y26g25b38.jpeg","Stim\r05y28g23b30.jpeg",11,5,26,28,25,23,38,30,1,0,4.954,1,"grøn","13_14",-2,1,"Agree",NA,NA,"left",-0.0147393558200618,0.214348980677473,0.203287427397598
"369","13_1",80,"13","Male",23,"Stim\r12y07g07b17.jpeg","Stim\r09y07g06b09.jpeg",12,9,7,7,7,6,17,9,-1,1,5.566,1,"grøn","13_14",-1,0,"Agree",NA,NA,"left",-0.0147393558200618,0.214348980677473,0.206429630520509
"370","13_1",81,"13","Male",23,"Stim\r03y03g02b05.jpeg","Stim\r21y01g04b27.jpeg",3,21,3,1,2,4,5,27,1,1,1.08,1,"grøn","13_14",2,1,"Agree",NA,NA,"left",-0.0147393558200618,0.214348980677473,0.210103945367945
"371","13_1",82,"13","Male",23,"Stim\r03y11g01b26.jpeg","Stim\r13y33g08b23.jpeg",3,13,11,33,1,8,26,23,2,1,1.118,1,"grøn","13_14",7,1,"Agree",NA,NA,"left",-0.0147393558200618,0.214348980677473,0.213982758909893
"372","13_1",83,"13","Male",23,"Stim\r09y07g06b09.jpeg","Stim\r08y09g09b11.jpeg",9,8,7,9,6,9,9,11,1,1,2.29,1,"grøn","13_14",3,1,"Agree",NA,NA,"left",-0.0147393558200618,0.214348980677473,0.211389768541379
"373","13_1",84,"13","Male",23,"Stim\r04y39g24b15.jpeg","Stim\r11y26g25b38.jpeg",4,11,39,26,24,25,15,38,1,1,1.713,1,"grøn","13_14",1,1,"Agree",NA,NA,"left",-0.0147393558200618,0.214348980677473,0.207244420444855
"374","13_1",85,"13","Male",23,"Stim\r10y02g36b05.jpeg","Stim\r09y17g32b21.jpeg",10,9,2,17,36,32,5,21,-4,1,1.391,1,"grøn","13_14",-4,0,"Agree",NA,NA,"left",-0.0147393558200618,0.214348980677473,0.20214437078741
"375","13_1",86,"13","Male",23,"Stim\r01y27g01b01.jpeg","Stim\r05y09g02b34.jpeg",1,5,27,9,1,2,1,34,1,1,2.452,1,"grøn","13_14",1,1,"Agree",NA,NA,"left",-0.0147393558200618,0.214348980677473,0.215790305221734
"376","13_1",87,"13","Male",23,"Stim\r07y06g08b05.jpeg","Stim\r18y19g14b27.jpeg",7,18,6,19,8,14,5,27,2,1,1.561,1,"grøn","13_14",6,1,"Agree",NA,NA,"left",-0.0147393558200618,0.214348980677473,0.235186136645741
"377","13_1",88,"13","Male",23,"Stim\r13y21g23b09.jpeg","Stim\r22y23g20b06.jpeg",13,22,21,23,23,20,9,6,-3,1,1.314,1,"grøn","13_14",-3,0,"Agree",NA,NA,"left",-0.0147393558200618,0.214348980677473,0.240084162029153
"378","13_1",89,"13","Male",23,"Stim\r17y22g16b15.jpeg","Stim\r09y15g18b07.jpeg",17,9,22,15,16,18,15,7,2,1,2.062,1,"grøn","13_14",2,1,"Right_lead","Female","Male","left",-0.0147393558200618,0.214348980677473,0.258496896038872
"379","13_1",90,"13","Male",23,"Stim\r08y23g10b29.jpeg","Stim\r16y09g06b10.jpeg",8,16,23,9,10,6,29,10,-2,1,1.33,1,"grøn","13_14",-4,0,"Agree",NA,NA,"left",-0.0147393558200618,0.214348980677473,0.257028873372869
"380","13_1",91,"13","Male",23,"Stim\r17y20g40b07.jpeg","Stim\r22y02g34b05.jpeg",17,22,20,2,40,34,7,5,2,0,1.123,1,"grøn","13_14",-6,1,"Agree",NA,NA,"left",-0.0147393558200618,0.214348980677473,0.252943912852962
"381","13_1",92,"13","Male",23,"Stim\r22y02g34b05.jpeg","Stim\r12y09g30b18.jpeg",22,12,2,9,34,30,5,18,3,0,1.248,1,"grøn","13_14",-4,1,"Agree",NA,NA,"left",-0.0147393558200618,0.214348980677473,0.253430547866146
"382","13_1",93,"13","Male",23,"Stim\r05y28g23b30.jpeg","Stim\r02y19g24b04.jpeg",5,2,28,19,23,24,30,4,1,1,2.514,1,"grøn","13_14",1,1,"Agree",NA,NA,"left",-0.0147393558200618,0.214348980677473,0.240066464383246
"383","13_1",94,"13","Male",23,"Stim\r19y15g35b05.jpeg","Stim\r09y17g32b21.jpeg",19,9,15,17,35,32,5,21,-2,1,1.153,1,"grøn","13_14",-3,0,"Agree",NA,NA,"left",-0.0147393558200618,0.214348980677473,0.241265954427729
"384","13_1",95,"13","Male",23,"Stim\r16y09g06b10.jpeg","Stim\r21y01g04b27.jpeg",16,21,9,1,6,4,10,27,2,0,1.041,1,"grøn","13_14",-2,1,"Agree",NA,NA,"left",-0.0147393558200618,0.214348980677473,0.235363083257542
"385","13_1",96,"13","Male",23,"Stim\r15y16g12b03.jpeg","Stim\r12y07g16b25.jpeg",15,12,16,7,12,16,3,25,2,1,1.12,1,"grøn","13_14",4,1,"Agree",NA,NA,"left",-0.0147393558200618,0.214348980677473,0.233051888387843
"386","13_1",97,"13","Male",23,"Stim\r20y14g02b19.jpeg","Stim\r19y10g06b15.jpeg",20,19,14,10,2,6,19,15,1,1,3.1,1,"grøn","13_14",4,1,"Agree",NA,NA,"left",-0.0147393558200618,0.214348980677473,NA
"387","13_2",1,"13","Male",23,"Stim\r08y12g20b03.jpeg","Stim\r10y37g07b02.jpeg",8,10,12,37,20,7,3,2,-1,0,1.369,2,"rød","13_15",2,0,"Right_lead","Male","Male","left",0.35544035557098,0.192914250493589,NA
"388","13_2",2,"13","Male",23,"Stim\r11y13g22b35.jpeg","Stim\r09y07g06b09.jpeg",11,9,13,7,22,6,35,9,1,0,2.324,2,"rød","13_15",-2,1,"Left_lead","Male","Male","left",0.35544035557098,0.192914250493589,NA
"389","13_2",3,"13","Male",23,"Stim\r17y12g19b18.jpeg","Stim\r16y21g04b04.jpeg",17,16,12,21,19,4,18,4,1,0,1.636,2,"rød","13_15",-1,1,"Agree",NA,NA,"left",0.35544035557098,0.192914250493589,NA
"390","13_2",4,"13","Male",23,"Stim\r07y06g08b05.jpeg","Stim\r03y06g12b09.jpeg",7,3,6,6,8,12,5,9,-1,1,1.617,2,"rød","13_15",-4,0,"Agree",NA,NA,"left",0.35544035557098,0.192914250493589,NA
"391","13_2",5,"13","Male",23,"Stim\r19y15g35b05.jpeg","Stim\r16y21g04b04.jpeg",19,16,15,21,35,4,5,4,-4,1,1.736,2,"rød","13_15",-3,0,"Agree",NA,NA,"left",0.35544035557098,0.192914250493589,NA
"392","13_2",6,"13","Male",23,"Stim\r15y16g12b03.jpeg","Stim\r18y19g14b27.jpeg",15,18,16,19,12,14,3,27,-3,0,1.414,2,"rød","13_15",3,0,"Left_lead","Male","Male","left",0.35544035557098,0.192914250493589,NA
"393","13_2",7,"13","Male",23,"Stim\r09y07g06b09.jpeg","Stim\r11y14g08b23.jpeg",9,11,7,14,6,8,9,23,2,1,1.994,2,"rød","13_15",2,1,"Agree",NA,NA,"left",0.35544035557098,0.192914250493589,NA
"394","13_2",8,"13","Male",23,"Stim\r20y04g39b23.jpeg","Stim\r13y24g05b28.jpeg",20,13,4,24,39,5,23,28,-2,1,2.194,2,"rød","13_15",-7,0,"Left_lead","Male","Male","left",0.35544035557098,0.192914250493589,NA
"395","13_2",9,"13","Male",23,"Stim\r03y11g01b26.jpeg","Stim\r01y27g01b01.jpeg",3,1,11,27,1,1,26,1,2,0,1.916,2,"rød","13_15",-2,1,"Left_lead","Male","Male","left",0.35544035557098,0.192914250493589,NA
"396","13_2",10,"13","Male",23,"Stim\r16y21g04b04.jpeg","Stim\r19y10g06b15.jpeg",16,19,21,10,4,6,4,15,-3,0,2.091,2,"rød","13_15",3,0,"Agree",NA,NA,"left",0.35544035557098,0.192914250493589,0.193640495502664
"397","13_2",11,"13","Male",23,"Stim\r02y10g14b11.jpeg","Stim\r11y14g08b23.jpeg",2,11,10,14,14,8,11,23,2,1,2.321,2,"rød","13_15",9,1,"Agree",NA,NA,"left",0.35544035557098,0.192914250493589,0.186221775332012
"398","13_2",12,"13","Male",23,"Stim\r21y01g04b27.jpeg","Stim\r19y15g35b05.jpeg",21,19,1,15,4,35,27,5,3,0,3.006,2,"rød","13_15",-2,1,"Agree",NA,NA,"left",0.35544035557098,0.192914250493589,0.197458998953139
"399","13_2",13,"13","Male",23,"Stim\r18y13g28b06.jpeg","Stim\r10y37g07b02.jpeg",18,10,13,37,28,7,6,2,-3,1,1.393,2,"rød","13_15",-8,0,"Agree",NA,NA,"left",0.35544035557098,0.192914250493589,0.200156207950273
"400","13_2",14,"13","Male",23,"Stim\r18y19g14b27.jpeg","Stim\r10y03g03b07.jpeg",18,10,19,3,14,3,27,7,2,0,2.281,2,"rød","13_15",-8,1,"Left_lead","Male","Male","left",0.35544035557098,0.192914250493589,0.193985833787304
"401","13_2",15,"13","Male",23,"Stim\r05y28g23b30.jpeg","Stim\r08y09g09b11.jpeg",5,8,28,9,23,9,30,11,1,1,1.045,2,"rød","13_15",3,1,"Agree",NA,NA,"left",0.35544035557098,0.192914250493589,0.20914039417894
"402","13_2",16,"13","Male",23,"Stim\r16y09g06b10.jpeg","Stim\r20y14g02b19.jpeg",16,20,9,14,6,2,10,19,2,1,1.301,2,"rød","13_15",4,1,"Agree",NA,NA,"left",0.35544035557098,0.192914250493589,0.19677843214701
"403","13_2",17,"13","Male",23,"Stim\r08y23g10b29.jpeg","Stim\r09y07g06b09.jpeg",8,9,23,7,10,6,29,9,-2,0,1.554,2,"rød","13_15",1,0,"Agree",NA,NA,"left",0.35544035557098,0.192914250493589,0.19934320303341
"404","13_2",18,"13","Male",23,"Stim\r12y12g14b26.jpeg","Stim\r08y12g20b03.jpeg",12,8,12,12,14,20,26,3,-2,1,2.349,2,"rød","13_15",-4,0,"Left_lead","Male","Male","left",0.35544035557098,0.192914250493589,0.204317176757961
"405","13_2",19,"13","Male",23,"Stim\r17y20g40b07.jpeg","Stim\r16y09g06b10.jpeg",17,16,20,9,40,6,7,10,-2,1,1.19,2,"rød","13_15",-1,0,"Right_lead","Male","Male","left",0.35544035557098,0.192914250493589,0.209979068851115
"406","13_2",20,"13","Male",23,"Stim\r10y07g11b10.jpeg","Stim\r09y07g06b09.jpeg",10,9,7,7,11,6,10,9,-4,1,2.034,2,"rød","13_15",-1,0,"Agree",NA,NA,"left",0.35544035557098,0.192914250493589,0.220151129144608
"407","13_2",21,"13","Male",23,"Stim\r08y09g09b11.jpeg","Stim\r16y09g06b10.jpeg",8,16,9,9,9,6,11,10,-2,0,3.036,2,"rød","13_15",8,0,"Agree",NA,NA,"left",0.35544035557098,0.192914250493589,0.213954610847235
"408","13_2",22,"13","Male",23,"Stim\r09y15g18b07.jpeg","Stim\r13y24g05b28.jpeg",9,13,15,24,18,5,7,28,2,1,1.563,2,"rød","13_15",4,1,"Agree",NA,NA,"left",0.35544035557098,0.192914250493589,0.220531609202271
"409","13_2",23,"13","Male",23,"Stim\r04y39g24b15.jpeg","Stim\r06y14g31b25.jpeg",4,6,39,14,24,31,15,25,1,1,1.625,2,"rød","13_15",2,1,"Agree",NA,NA,"left",0.35544035557098,0.192914250493589,0.222406545903507
"410","13_2",24,"13","Male",23,"Stim\r14y10g15b15.jpeg","Stim\r11y13g22b35.jpeg",14,11,10,13,15,22,15,35,2,0,3.045,2,"rød","13_15",-3,1,"Agree",NA,NA,"left",0.35544035557098,0.192914250493589,0.230757801027588
"411","13_2",25,"13","Male",23,"Stim\r04y39g24b15.jpeg","Stim\r09y07g06b09.jpeg",4,9,39,7,24,6,15,9,2,0,1.317,2,"blå","13_15",-6,1,"Agree",NA,NA,"left",0.35544035557098,0.192914250493589,0.222145099087082
"412","13_2",26,"13","Male",23,"Stim\r13y21g23b09.jpeg","Stim\r17y20g40b07.jpeg",13,17,21,20,23,40,9,7,2,0,1.023,2,"blå","13_15",-2,1,"Agree",NA,NA,"left",0.35544035557098,0.192914250493589,0.211221083467722
"413","13_2",27,"13","Male",23,"Stim\r07y02g03b06.jpeg","Stim\r15y05g12b10.jpeg",7,15,2,5,3,12,6,10,2,1,0.93,2,"blå","13_15",4,1,"Agree",NA,NA,"left",0.35544035557098,0.192914250493589,0.201512524603272
"414","13_2",28,"13","Male",23,"Stim\r20y14g02b19.jpeg","Stim\r14y10g15b15.jpeg",20,14,14,10,2,15,19,15,2,0,1.05,2,"blå","13_15",-4,1,"Left_lead","Male","Male","left",0.35544035557098,0.192914250493589,0.169075187534877
"415","13_2",29,"13","Male",23,"Stim\r09y07g06b09.jpeg","Stim\r17y11g38b07.jpeg",9,17,7,11,6,38,9,7,-1,1,2.984,2,"blå","13_15",-2,0,"Agree",NA,NA,"left",0.35544035557098,0.192914250493589,0.171255787727779
"416","13_2",30,"13","Male",23,"Stim\r17y11g38b07.jpeg","Stim\r10y02g36b05.jpeg",17,10,11,2,38,36,7,5,-3,1,1.836,2,"blå","13_15",-2,0,"Right_lead","Male","Male","left",0.35544035557098,0.192914250493589,0.192713997932492
"417","13_2",31,"13","Male",23,"Stim\r11y14g08b23.jpeg","Stim\r18y19g14b27.jpeg",11,18,14,19,8,14,23,27,3,1,3.968,2,"blå","13_15",4,1,"Agree",NA,NA,"left",0.35544035557098,0.192914250493589,0.200774188328579
"418","13_2",32,"13","Male",23,"Stim\r10y03g03b07.jpeg","Stim\r03y03g02b05.jpeg",10,3,3,3,3,2,7,5,2,0,1.808,2,"blå","13_15",-2,1,"Left_lead","Male","Male","left",0.35544035557098,0.192914250493589,0.195876418302011
"419","13_2",33,"13","Male",23,"Stim\r16y21g04b04.jpeg","Stim\r08y12g20b03.jpeg",16,8,21,12,4,20,4,3,-2,1,1.528,2,"blå","13_15",-1,0,"Agree",NA,NA,"left",0.35544035557098,0.192914250493589,0.189637354362742
"420","13_2",34,"13","Male",23,"Stim\r05y28g23b30.jpeg","Stim\r18y19g14b27.jpeg",5,18,28,19,23,14,30,27,3,0,1.189,2,"blå","13_15",-3,1,"Agree",NA,NA,"left",0.35544035557098,0.192914250493589,0.177392260736631
"421","13_2",35,"13","Male",23,"Stim\r21y31g06b08.jpeg","Stim\r22y23g20b06.jpeg",21,22,31,23,6,20,8,6,2,0,4.099,2,"blå","13_15",-2,1,"Agree",NA,NA,"left",0.35544035557098,0.192914250493589,0.17177539876497
"422","13_2",36,"13","Male",23,"Stim\r22y02g34b05.jpeg","Stim\r10y27g22b14.jpeg",22,10,2,27,34,22,5,14,2,1,1.42,2,"blå","13_15",9,1,"Right_lead","Male","Male","left",0.35544035557098,0.192914250493589,0.175095815572003
"423","13_2",37,"13","Male",23,"Stim\r03y06g12b09.jpeg","Stim\r17y22g16b15.jpeg",3,17,6,22,12,16,9,15,2,1,1.462,2,"blå","13_15",6,1,"Agree",NA,NA,"left",0.35544035557098,0.192914250493589,0.172092816764516
"424","13_2",38,"13","Male",23,"Stim\r18y13g28b06.jpeg","Stim\r10y07g11b10.jpeg",18,10,13,7,28,11,6,10,3,1,1.828,2,"blå","13_15",4,1,"Agree",NA,NA,"left",0.35544035557098,0.192914250493589,0.169437835507874
"425","13_2",39,"13","Male",23,"Stim\r21y01g04b27.jpeg","Stim\r17y07g07b24.jpeg",21,17,1,7,4,7,27,24,-4,1,1.68,2,"blå","13_15",-3,0,"Left_lead","Male","Male","left",0.35544035557098,0.192914250493589,0.157122709333165
"426","13_2",40,"13","Male",23,"Stim\r02y10g14b11.jpeg","Stim\r20y14g02b19.jpeg",2,20,10,14,14,2,11,19,-4,0,2.308,2,"blå","13_15",8,0,"Right_lead","Male","Male","left",0.35544035557098,0.192914250493589,0.149615322604821
"427","13_2",41,"13","Male",23,"Stim\r11y26g25b38.jpeg","Stim\r09y06g26b32.jpeg",11,9,26,6,25,26,38,32,3,0,2.061,2,"blå","13_15",-6,1,"Agree",NA,NA,"left",0.35544035557098,0.192914250493589,0.14975370275465
"428","13_2",42,"13","Male",23,"Stim\r01y27g01b01.jpeg","Stim\r09y02g05b02.jpeg",1,9,27,2,1,5,1,2,4,1,2.187,2,"blå","13_15",1,1,"Right_lead","Male","Male","left",0.35544035557098,0.192914250493589,0.147402824308029
"429","13_2",43,"13","Male",23,"Stim\r22y23g20b06.jpeg","Stim\r08y12g20b03.jpeg",22,8,23,12,20,20,6,3,1,0,1.314,2,"blå","13_15",-3,1,"Right_lead","Male","Male","left",0.35544035557098,0.192914250493589,0.143015275778797
"430","13_2",44,"13","Male",23,"Stim\r08y23g10b29.jpeg","Stim\r05y28g23b30.jpeg",8,5,23,28,10,23,29,30,-4,0,1.335,2,"blå","13_15",1,0,"Agree",NA,NA,"left",0.35544035557098,0.192914250493589,0.160944211053592
"431","13_2",45,"13","Male",23,"Stim\r12y07g07b17.jpeg","Stim\r13y33g08b23.jpeg",12,13,7,33,7,8,17,23,2,1,1.853,2,"blå","13_15",6,1,"Left_lead","Male","Male","left",0.35544035557098,0.192914250493589,0.166477173327174
"432","13_2",46,"13","Male",23,"Stim\r16y09g06b10.jpeg","Stim\r06y36g16b14.jpeg",16,6,9,36,6,16,10,14,4,1,1.529,2,"blå","13_15",4,1,"Left_lead","Male","Male","left",0.35544035557098,0.192914250493589,0.175183213133113
"433","13_2",47,"13","Male",23,"Stim\r20y04g39b23.jpeg","Stim\r07y14g27b22.jpeg",20,7,4,14,39,27,23,22,4,0,2.888,2,"blå","13_15",-1,1,"Agree",NA,NA,"left",0.35544035557098,0.192914250493589,0.171506060181696
"434","13_2",48,"13","Male",23,"Stim\r10y13g07b36.jpeg","Stim\r21y03g15b37.jpeg",10,21,13,3,7,15,36,37,4,1,1.535,2,"blå","13_15",1,1,"Agree",NA,NA,"left",0.35544035557098,0.192914250493589,0.166672224237081
"435","13_2",49,"13","Male",23,"Stim\r12y09g30b18.jpeg","Stim\r12y07g07b17.jpeg",12,12,9,7,30,7,18,17,-1,1,2.475,2,"gul","13_15",-2,0,"Left_lead","Male","Male","left",0.35544035557098,0.192914250493589,0.167710938216654
"436","13_2",50,"13","Male",23,"Stim\r07y06g08b05.jpeg","Stim\r03y03g02b05.jpeg",7,3,6,3,8,2,5,5,-2,1,1.109,2,"gul","13_15",-3,0,"Agree",NA,NA,"left",0.35544035557098,0.192914250493589,0.179989589996342
"437","13_2",51,"13","Male",23,"Stim\r13y21g23b09.jpeg","Stim\r21y24g16b04.jpeg",13,21,21,24,23,16,9,4,-2,0,1.195,2,"gul","13_15",3,0,"Agree",NA,NA,"left",0.35544035557098,0.192914250493589,0.192927107577599
"438","13_2",52,"13","Male",23,"Stim\r09y06g26b32.jpeg","Stim\r14y08g21b39.jpeg",9,14,6,8,26,21,32,39,2,1,1.964,2,"gul","13_15",2,1,"Agree",NA,NA,"left",0.35544035557098,0.192914250493589,0.184205782158531
"439","13_2",53,"13","Male",23,"Stim\r21y31g06b08.jpeg","Stim\r22y35g09b11.jpeg",21,22,31,35,6,9,8,11,2,1,1.877,2,"gul","13_15",4,1,"Agree",NA,NA,"left",0.35544035557098,0.192914250493589,0.226204480722504
"440","13_2",54,"13","Male",23,"Stim\r07y14g27b22.jpeg","Stim\r09y07g06b09.jpeg",7,9,14,7,27,6,22,9,-3,1,1.724,2,"gul","13_15",-7,0,"Agree",NA,NA,"left",0.35544035557098,0.192914250493589,0.231581114278279
"441","13_2",55,"13","Male",23,"Stim\r15y05g12b10.jpeg","Stim\r09y06g26b32.jpeg",15,9,5,6,12,26,10,32,-2,0,1.68,2,"gul","13_15",1,0,"Right_lead","Male","Male","left",0.35544035557098,0.192914250493589,0.227608190783566
"442","13_2",56,"13","Male",23,"Stim\r10y27g22b14.jpeg","Stim\r04y28g27b06.jpeg",10,4,27,28,22,27,14,6,2,1,1.742,2,"gul","13_15",1,1,"Agree",NA,NA,"left",0.35544035557098,0.192914250493589,0.235230563522839
"443","13_2",57,"13","Male",23,"Stim\r15y16g12b03.jpeg","Stim\r21y24g16b04.jpeg",15,21,16,24,12,16,3,4,-4,0,1.358,2,"gul","13_15",8,0,"Agree",NA,NA,"left",0.35544035557098,0.192914250493589,0.169222170559379
"444","13_2",58,"13","Male",23,"Stim\r10y02g36b05.jpeg","Stim\r10y03g03b07.jpeg",10,10,2,3,36,3,5,7,2,1,1.722,2,"gul","13_15",1,1,"Agree",NA,NA,"left",0.35544035557098,0.192914250493589,0.179131956387954
"445","13_2",59,"13","Male",23,"Stim\r12y12g14b26.jpeg","Stim\r18y13g28b06.jpeg",12,18,12,13,14,28,26,6,-2,0,1.225,2,"gul","13_15",1,0,"Agree",NA,NA,"left",0.35544035557098,0.192914250493589,0.176008921767386
"446","13_2",60,"13","Male",23,"Stim\r02y10g14b11.jpeg","Stim\r12y09g30b18.jpeg",2,12,10,9,14,30,11,18,-2,1,1.241,2,"gul","13_15",-1,0,"Agree",NA,NA,"left",0.35544035557098,0.192914250493589,0.188745215556973
"447","13_2",61,"13","Male",23,"Stim\r21y01g04b27.jpeg","Stim\r02y10g14b11.jpeg",21,2,1,10,4,14,27,11,2,1,1.087,2,"gul","13_15",9,1,"Agree",NA,NA,"left",0.35544035557098,0.192914250493589,0.200886795612223
"448","13_2",62,"13","Male",23,"Stim\r18y13g28b06.jpeg","Stim\r09y15g18b07.jpeg",18,9,13,15,28,18,6,7,2,1,1.617,2,"gul","13_15",2,1,"Agree",NA,NA,"left",0.35544035557098,0.192914250493589,0.208739320844503
"449","13_2",63,"13","Male",23,"Stim\r06y36g16b14.jpeg","Stim\r22y35g09b11.jpeg",6,22,36,35,16,9,14,11,3,0,1.656,2,"gul","13_15",-1,1,"Agree",NA,NA,"left",0.35544035557098,0.192914250493589,0.210545294509207
"450","13_2",64,"13","Male",23,"Stim\r11y26g25b38.jpeg","Stim\r05y28g23b30.jpeg",11,5,26,28,25,23,38,30,2,1,1.942,2,"gul","13_15",2,1,"Agree",NA,NA,"left",0.35544035557098,0.192914250493589,0.207098092682808
"451","13_2",65,"13","Male",23,"Stim\r06y14g31b25.jpeg","Stim\r19y10g06b15.jpeg",6,19,14,10,31,6,25,15,-2,1,1.336,2,"gul","13_15",-4,0,"Right_lead","Male","Male","left",0.35544035557098,0.192914250493589,0.207122973055264
"452","13_2",66,"13","Male",23,"Stim\r18y19g14b27.jpeg","Stim\r15y16g12b03.jpeg",18,15,19,16,14,12,27,3,-3,1,2.294,2,"gul","13_15",-3,0,"Right_lead","Male","Male","left",0.35544035557098,0.192914250493589,0.215389218971833
"453","13_2",67,"13","Male",23,"Stim\r07y02g03b06.jpeg","Stim\r21y01g04b27.jpeg",7,21,2,1,3,4,6,27,2,0,3.598,2,"gul","13_15",-1,1,"Left_lead","Male","Male","left",0.35544035557098,0.192914250493589,0.241036907498341
"454","13_2",68,"13","Male",23,"Stim\r14y08g21b39.jpeg","Stim\r19y15g35b05.jpeg",14,19,8,15,21,35,39,5,2,1,1.367,2,"gul","13_15",7,1,"Agree",NA,NA,"left",0.35544035557098,0.192914250493589,0.246202866009919
"455","13_2",69,"13","Male",23,"Stim\r19y10g06b15.jpeg","Stim\r11y14g08b23.jpeg",19,11,10,14,6,8,15,23,2,1,1.547,2,"gul","13_15",4,1,"Agree",NA,NA,"left",0.35544035557098,0.192914250493589,0.257422869533104
"456","13_2",70,"13","Male",23,"Stim\r21y03g15b37.jpeg","Stim\r09y07g06b09.jpeg",21,9,3,7,15,6,37,9,2,1,1.188,2,"gul","13_15",4,1,"Agree",NA,NA,"left",0.35544035557098,0.192914250493589,0.281375720659815
"457","13_2",71,"13","Male",23,"Stim\r05y09g02b34.jpeg","Stim\r02y10g14b11.jpeg",5,2,9,10,2,14,34,11,3,1,1.391,2,"gul","13_15",1,1,"Agree",NA,NA,"left",0.35544035557098,0.192914250493589,0.275311242505681
"458","13_2",72,"13","Male",23,"Stim\r22y35g09b11.jpeg","Stim\r04y39g24b15.jpeg",22,4,35,39,9,24,11,15,-3,0,1.343,2,"gul","13_15",4,0,"Left_lead","Male","Male","left",0.35544035557098,0.192914250493589,0.236764196022852
"459","13_2",73,"13","Male",23,"Stim\r14y12g04b29.jpeg","Stim\r01y27g01b01.jpeg",14,1,12,27,4,1,29,1,1,0,1.815,2,"grøn","13_15",-3,1,"Left_lead","Male","Male","left",0.35544035557098,0.192914250493589,0.234393559987709
"460","13_2",74,"13","Male",23,"Stim\r21y03g15b37.jpeg","Stim\r15y17g24b30.jpeg",21,15,3,17,15,24,37,30,1,1,2.563,2,"grøn","13_15",9,1,"Agree",NA,NA,"left",0.35544035557098,0.192914250493589,0.238021173408517
"461","13_2",75,"13","Male",23,"Stim\r11y13g22b35.jpeg","Stim\r08y12g20b03.jpeg",11,8,13,12,22,20,35,3,-2,1,1.156,2,"grøn","13_15",-2,0,"Right_lead","Male","Male","left",0.35544035557098,0.192914250493589,0.237383915835658
"462","13_2",76,"13","Male",23,"Stim\r12y07g16b25.jpeg","Stim\r21y03g15b37.jpeg",12,21,7,3,16,15,25,37,-3,1,1.233,2,"grøn","13_15",-1,0,"Right_lead","Male","Male","left",0.35544035557098,0.192914250493589,0.23094249229945
"463","13_2",77,"13","Male",23,"Stim\r04y28g27b06.jpeg","Stim\r09y15g18b07.jpeg",4,9,28,15,27,18,6,7,3,0,2.501,2,"grøn","13_15",-9,1,"Left_lead","Male","Male","left",0.35544035557098,0.192914250493589,0.199850553236589
"464","13_2",78,"13","Male",23,"Stim\r06y14g31b25.jpeg","Stim\r02y19g24b04.jpeg",6,2,14,19,31,24,25,4,-2,1,1.118,2,"grøn","13_15",-7,0,"Left_lead","Male","Male","left",0.35544035557098,0.192914250493589,0.19768187038237
"465","13_2",79,"13","Male",23,"Stim\r17y07g07b24.jpeg","Stim\r03y11g01b26.jpeg",17,3,7,11,7,1,24,26,-2,1,1.126,2,"grøn","13_15",-6,0,"Left_lead","Male","Male","left",0.35544035557098,0.192914250493589,0.19487938527803
"466","13_2",80,"13","Male",23,"Stim\r18y13g28b06.jpeg","Stim\r15y17g24b30.jpeg",18,15,13,17,28,24,6,30,2,0,1.164,2,"grøn","13_15",-4,1,"Agree",NA,NA,"left",0.35544035557098,0.192914250493589,0.195546457431647
"467","13_2",81,"13","Male",23,"Stim\r21y24g16b04.jpeg","Stim\r04y39g24b15.jpeg",21,4,24,39,16,24,4,15,2,1,1.057,2,"grøn","13_15",8,1,"Agree",NA,NA,"left",0.35544035557098,0.192914250493589,0.192297635858902
"468","13_2",82,"13","Male",23,"Stim\r03y06g12b09.jpeg","Stim\r21y24g16b04.jpeg",3,21,6,24,12,16,9,4,-2,0,0.982,2,"grøn","13_15",4,0,"Agree",NA,NA,"left",0.35544035557098,0.192914250493589,0.193582819570186
"469","13_2",83,"13","Male",23,"Stim\r22y35g09b11.jpeg","Stim\r08y23g10b29.jpeg",22,8,35,23,9,10,11,29,2,1,2.074,2,"grøn","13_15",1,1,"Left_lead","Male","Male","left",0.35544035557098,0.192914250493589,0.192886141739855
