"","ID","age","gender","word","response","correct","rt","block","trial","condition"
"1",1,23,"Male","Jens","e",1,2.15177180000046,3,3,1
"2",1,23,"Male","Mette","i",1,0.798229999999421,3,4,1
"3",1,23,"Male","Morten","e",1,1.59577540000009,3,5,1
"4",1,23,"Male","Ruth","i",1,0.937023399999816,3,6,1
"5",1,23,"Male","Ægteskab","e",1,2.18620180000016,3,7,1
"6",1,23,"Male","Hanne","i",1,1.16543180000008,3,8,1
"7",1,23,"Male","Line","i",1,2.1211787000002,3,9,1
"8",1,23,"Male","Forældre","e",1,1.3795983,3,10,1
"9",1,23,"Male","Karriere","i",1,0.823412900000221,3,11,1
"10",1,23,"Male","Akademiker","i",1,0.871347600000263,3,12,1
"11",1,23,"Male","Børn","e",1,2.16477810000015,3,13,1
"12",1,23,"Male","Hanne","i",1,1.02751650000027,3,14,1
"13",1,23,"Male","Casper","e",1,0.886816100000033,3,15,1
"14",1,23,"Male","Ægteskab","e",1,1.07605890000013,3,16,1
"15",1,23,"Male","Josefine","i",1,0.872969099999864,3,17,1
"16",1,23,"Male","Familie","e",1,2.44843330000003,3,18,1
"17",1,23,"Male","Ledelse","i",1,0.641340299999683,3,19,1
"18",1,23,"Male","Kontor","i",1,1.08864070000072,3,20,1
"19",1,23,"Male","Ægteskab","e",1,1.1939268999995,4,3,1
"20",1,23,"Male","Karriere","i",1,1.23532479999994,4,4,1
"21",1,23,"Male","Børn","e",1,0.926902900000641,4,5,1
"22",1,23,"Male","Sebastian","e",1,1.13703149999947,4,6,1
"23",1,23,"Male","Mette","i",1,0.703978100000313,4,7,1
"24",1,23,"Male","Kontor","i",1,1.02134000000024,4,8,1
"25",1,23,"Male","Line","i",1,1.28198390000034,4,9,1
"26",1,23,"Male","Morten","e",1,0.782884499999454,4,10,1
"27",1,23,"Male","Hjem","e",1,1.17469079999955,4,12,1
"28",1,23,"Male","Line","i",1,0.995134699999653,4,13,1
"29",1,23,"Male","Forældre","e",1,1.00519009999971,4,14,1
"30",1,23,"Male","Mikkel","e",1,0.914326699999947,4,15,1
"31",1,23,"Male","Casper","e",1,0.856951300000219,4,16,1
"32",1,23,"Male","Ledelse","i",1,0.758162900000571,4,17,1
"33",1,23,"Male","Ole","e",1,1.03165239999998,4,18,1
"34",1,23,"Male","Hjem","e",1,1.35734519999914,4,19,1
"35",1,23,"Male","Handel","i",1,0.798857200000384,4,20,1
"36",1,23,"Male","Josefine","i",1,1.06315300000006,4,21,1
"37",1,23,"Male","Rasmus","e",1,0.787828999999874,4,22,1
"38",1,23,"Male","Casper","e",1,0.531576999999743,4,23,1
"39",1,23,"Male","Virksomhed","i",1,0.638974199999211,4,24,1
"40",1,23,"Male","Ole","e",1,1.01726830000007,4,25,1
"41",1,23,"Male","Hanne","i",1,0.833575399999972,4,26,1
"42",1,23,"Male","Karriere","i",1,1.41204920000018,4,27,1
"43",1,23,"Male","Ledelse","i",1,0.810736699999325,4,28,1
"44",1,23,"Male","Akademiker","i",1,1.52415000000019,4,29,1
"45",1,23,"Male","Sebastian","e",1,0.988234600000396,4,31,1
"46",1,23,"Male","Løn","i",1,0.689276699999937,4,32,1
"47",1,23,"Male","Josefine","i",1,1.2675164000002,4,33,1
"48",1,23,"Male","Kontor","i",1,1.63440850000006,4,34,1
"49",1,23,"Male","Jens","e",1,0.833254199999828,4,35,1
"50",1,23,"Male","Ægteskab","e",1,0.958921599999485,4,37,1
"51",1,23,"Male","Birthe","i",1,0.928875600000538,4,38,1
"52",1,23,"Male","Forældre","e",1,1.92951459999949,4,39,1
"53",1,23,"Male","Børn","e",1,NA,4,40,1
"54",1,23,"Male","Jens","e",1,1.28535210000064,6,3,0
"55",1,23,"Male","Mette","i",1,0.908279100000073,6,4,0
"56",1,23,"Male","Morten","e",1,1.15154379999967,6,5,0
"57",1,23,"Male","Ruth","i",1,0.905371699999705,6,6,0
"58",1,23,"Male","Ægteskab","i",1,1.53856290000022,6,7,0
"59",1,23,"Male","Hanne","i",1,1.17749099999946,6,8,0
"60",1,23,"Male","Line","i",1,0.760459099999935,6,9,0
"61",1,23,"Male","Forældre","i",1,1.81034590000036,6,10,0
"62",1,23,"Male","Karriere","e",1,1.53464869999971,6,11,0
"63",1,23,"Male","Akademiker","e",1,0.982914000000164,6,12,0
"64",1,23,"Male","Børn","i",1,1.14898300000004,6,13,0
"65",1,23,"Male","Hanne","i",1,0.926900100000239,6,14,0
"66",1,23,"Male","Casper","e",1,0.970109099999718,6,15,0
"67",1,23,"Male","Ægteskab","i",1,1.15089490000082,6,16,0
"68",1,23,"Male","Josefine","i",1,0.948644500000228,6,17,0
"69",1,23,"Male","Familie","i",1,0.936893100000816,6,18,0
"70",1,23,"Male","Ledelse","e",1,0.853909500000555,6,19,0
"71",1,23,"Male","Ægteskab","i",1,1.48970350000036,7,3,0
"72",1,23,"Male","Karriere","e",1,1.29482170000028,7,4,0
"73",1,23,"Male","Børn","i",1,2.29768390000027,7,5,0
"74",1,23,"Male","Sebastian","e",1,1.25990679999995,7,6,0
"75",1,23,"Male","Mette","i",1,0.985533699999905,7,7,0
"76",1,23,"Male","Kontor","e",1,1.4242592999999,7,8,0
"77",1,23,"Male","Line","i",1,0.843603600000279,7,9,0
"78",1,23,"Male","Morten","e",1,0.783903800000189,7,10,0
"79",1,23,"Male","Børn","i",1,1.04647979999936,7,11,0
"80",1,23,"Male","Hjem","i",1,1.67634160000034,7,12,0
"81",1,23,"Male","Line","i",1,1.51614270000027,7,13,0
"82",1,23,"Male","Forældre","i",1,1.06668020000052,7,14,0
"83",1,23,"Male","Mikkel","e",1,0.703509799999665,7,15,0
"84",1,23,"Male","Casper","e",1,0.481195299999854,7,16,0
"85",1,23,"Male","Ledelse","e",1,0.60868230000051,7,17,0
"86",1,23,"Male","Ole","e",1,0.538431299999502,7,18,0
"87",1,23,"Male","Hjem","i",1,0.686413499999617,7,19,0
"88",1,23,"Male","Handel","e",1,0.67368820000047,7,20,0
"89",1,23,"Male","Josefine","i",1,0.972389399999884,7,21,0
"90",1,23,"Male","Rasmus","e",1,1.01919990000079,7,22,0
"91",1,23,"Male","Casper","e",1,0.545292099999642,7,23,0
"92",1,23,"Male","Virksomhed","e",1,0.794177800000398,7,24,0
"93",1,23,"Male","Ole","e",1,0.74986650000028,7,25,0
"94",1,23,"Male","Hanne","i",1,0.729931599999873,7,26,0
"95",1,23,"Male","Karriere","e",1,0.87301590000061,7,27,0
"96",1,23,"Male","Ledelse","e",1,1.01551999999992,7,28,0
"97",1,23,"Male","Akademiker","e",1,0.586314399999537,7,29,0
"98",1,23,"Male","Familie","i",1,0.602494199999455,7,30,0
"99",1,23,"Male","Sebastian","e",1,0.6245657999998,7,31,0
"100",1,23,"Male","Josefine","i",1,0.678725900000245,7,33,0
"101",1,23,"Male","Kontor","e",1,0.96306100000038,7,34,0
"102",1,23,"Male","Jens","e",1,1.34424349999972,7,35,0
"103",1,23,"Male","Bryllup","i",1,1.05310019999979,7,36,0
"104",1,23,"Male","Ægteskab","i",1,0.874281999999766,7,37,0
"105",1,23,"Male","Birthe","i",1,0.981970699999692,7,38,0
"106",1,23,"Male","Forældre","i",1,1.67402029999994,7,39,0
"107",1,23,"Male","Børn","i",1,1.42896289999953,7,40,0
"108",2,25,"Female","Akademiker","i",1,0.822788679011865,3,3,1
"109",2,25,"Female","Mette","i",1,0.584798658004729,3,4,1
"110",2,25,"Female","Birthe","i",1,0.523819716996513,3,5,1
"111",2,25,"Female","Casper","e",1,0.701477461989271,3,6,1
"112",2,25,"Female","Forældre","e",1,0.596460185013711,3,7,1
"113",2,25,"Female","Josefine","i",1,0.560381849005353,3,8,1
"114",2,25,"Female","Birthe","i",1,0.66681335499743,3,9,1
"115",2,25,"Female","Mette","i",1,0.573178842023481,3,10,1
"116",2,25,"Female","Morten","e",1,0.623811891011428,3,11,1
"117",2,25,"Female","Handel","i",1,1.16741979101789,3,12,1
"118",2,25,"Female","Virksomhed","i",1,0.455124482978135,3,13,1
"119",2,25,"Female","Hanne","i",1,0.879862372006755,3,14,1
"120",2,25,"Female","Ole","e",1,0.607470882998314,3,15,1
"121",2,25,"Female","Ledelse","i",1,0.667654775985284,3,16,1
"122",2,25,"Female","Ægteskab","e",1,0.584070559008978,3,17,1
"123",2,25,"Female","Akademiker","i",1,0.949764090008102,3,18,1
"124",2,25,"Female","Hanne","i",1,0.688798157003475,3,19,1
"125",2,25,"Female","Sebastian","e",1,0.66116674998193,3,20,1
"126",2,25,"Female","Josefine","i",1,0.553249539982062,4,3,1
"127",2,25,"Female","Løn","i",1,0.610470529994927,4,4,1
"128",2,25,"Female","Line","i",1,0.51653658298892,4,5,1
"129",2,25,"Female","Camilla","i",1,0.442423786997097,4,6,1
"130",2,25,"Female","Mikkel","e",1,0.518597988993861,4,7,1
"131",2,25,"Female","Slægtninge","e",1,0.670830623013899,4,8,1
"132",2,25,"Female","Hjem","e",1,0.479712934989948,4,9,1
"133",2,25,"Female","Mette","i",1,0.666524606989697,4,11,1
"134",2,25,"Female","Kontor","i",1,1.52708465899923,4,12,1
"135",2,25,"Female","Handel","i",1,0.549701462005032,4,13,1
"136",2,25,"Female","Akademiker","i",1,0.523553307022667,4,14,1
"137",2,25,"Female","Bryllup","e",1,1.03437775099883,4,15,1
"138",2,25,"Female","Akademiker","i",1,0.522908407001523,4,16,1
"139",2,25,"Female","Ægteskab","e",1,0.655340215016622,4,17,1
"140",2,25,"Female","Mikkel","e",1,0.588334234984359,4,18,1
"141",2,25,"Female","Ledelse","i",1,0.713478960009525,4,19,1
"142",2,25,"Female","Birthe","i",1,0.573974575992906,4,20,1
"143",2,25,"Female","Familie","e",1,0.786728800012497,4,21,1
"144",2,25,"Female","Casper","e",1,0.692106132977642,4,22,1
"145",2,25,"Female","Hjem","e",1,0.536248207004974,4,23,1
"146",2,25,"Female","Josefine","i",1,0.53613799798768,4,24,1
"147",2,25,"Female","Jens","e",1,0.722577649983577,4,25,1
"148",2,25,"Female","Forældre","e",1,1.02961498001241,4,26,1
"149",2,25,"Female","Camilla","i",1,0.568802757014055,4,27,1
"150",2,25,"Female","Slægtninge","e",1,1.01261018399964,4,28,1
"151",2,25,"Female","Hanne","i",1,0.492084308003541,4,29,1
"152",2,25,"Female","Line","i",1,0.652498159994138,4,30,1
"153",2,25,"Female","Virksomhed","i",1,0.847641085012583,4,31,1
"154",2,25,"Female","Casper","e",1,0.691019564983435,4,32,1
"155",2,25,"Female","Handel","i",1,0.739158693992067,4,33,1
"156",2,25,"Female","Karriere","i",1,0.73284130601678,4,34,1
"157",2,25,"Female","Ruth","i",1,0.66302934999112,4,35,1
"158",2,25,"Female","Mette","i",1,0.638910158013459,4,36,1
"159",2,25,"Female","Birthe","i",1,0.723270679998677,4,37,1
"160",2,25,"Female","Jens","e",1,0.585402425000211,4,38,1
"161",2,25,"Female","Sebastian","e",1,0.466832631005673,4,39,1
"162",2,25,"Female","Forældre","e",1,0.572191540006315,4,40,1
"163",2,25,"Female","Akademiker","e",1,0.506323281995719,6,3,0
"164",2,25,"Female","Mette","i",1,0.471113586012507,6,4,0
"165",2,25,"Female","Birthe","i",1,0.413895844016224,6,5,0
"166",2,25,"Female","Casper","e",1,0.566666591010289,6,6,0
"167",2,25,"Female","Forældre","i",1,1.07570807501907,6,7,0
"168",2,25,"Female","Josefine","i",1,0.672529854986351,6,8,0
"169",2,25,"Female","Birthe","i",1,0.407817686995259,6,9,0
"170",2,25,"Female","Mette","i",1,0.488976002990967,6,10,0
"171",2,25,"Female","Morten","e",1,0.711210962006589,6,11,0
"172",2,25,"Female","Handel","e",1,0.526926421996905,6,12,0
"173",2,25,"Female","Virksomhed","e",1,0.466425352991791,6,13,0
"174",2,25,"Female","Hanne","i",1,0.456751000019722,6,14,0
"175",2,25,"Female","Ledelse","e",1,1.07607493200339,6,16,0
"176",2,25,"Female","Ægteskab","i",1,0.702622468990739,6,17,0
"177",2,25,"Female","Akademiker","e",1,0.625110922002932,6,18,0
"178",2,25,"Female","Hanne","i",1,0.514217331015971,6,19,0
"179",2,25,"Female","Sebastian","e",1,0.536236169020412,6,20,0
"180",2,25,"Female","Josefine","i",1,0.479899099998875,7,3,0
"181",2,25,"Female","Løn","e",1,0.591854036989389,7,4,0
"182",2,25,"Female","Line","i",1,0.544783983001253,7,5,0
"183",2,25,"Female","Camilla","i",1,0.428329133981606,7,6,0
"184",2,25,"Female","Mikkel","e",1,0.636969622981269,7,7,0
"185",2,25,"Female","Slægtninge","i",1,0.841254761995515,7,8,0
"186",2,25,"Female","Hjem","i",1,0.560442607995356,7,9,0
"187",2,25,"Female","Morten","e",1,0.563816695997957,7,10,0
"188",2,25,"Female","Mette","i",1,0.55442025497905,7,11,0
"189",2,25,"Female","Kontor","e",1,0.722456792980665,7,12,0
"190",2,25,"Female","Handel","e",1,0.523871912009781,7,13,0
"191",2,25,"Female","Akademiker","e",1,0.527930888987612,7,14,0
"192",2,25,"Female","Bryllup","i",1,0.616908322001109,7,15,0
"193",2,25,"Female","Akademiker","e",1,0.53247243797523,7,16,0
"194",2,25,"Female","Ægteskab","i",1,0.523277041007532,7,17,0
"195",2,25,"Female","Mikkel","e",1,0.917354879988125,7,18,0
"196",2,25,"Female","Ledelse","e",1,0.567913164006313,7,19,0
"197",2,25,"Female","Birthe","i",1,0.426661545992829,7,20,0
"198",2,25,"Female","Familie","i",1,0.512051887984853,7,21,0
"199",2,25,"Female","Casper","e",1,0.460840550978901,7,22,0
"200",2,25,"Female","Hjem","i",1,0.797480192995863,7,23,0
"201",2,25,"Female","Josefine","i",1,0.546838656999171,7,24,0
"202",2,25,"Female","Jens","e",1,0.561620255000889,7,25,0
"203",2,25,"Female","Forældre","i",1,1.6265664639941,7,26,0
"204",2,25,"Female","Camilla","i",1,0.755226328008575,7,27,0
"205",2,25,"Female","Slægtninge","i",1,0.659184027987067,7,28,0
"206",2,25,"Female","Hanne","i",1,0.924775665014749,7,29,0
"207",2,25,"Female","Line","i",1,0.590459005004959,7,30,0
"208",2,25,"Female","Virksomhed","e",1,0.552436547994148,7,31,0
"209",2,25,"Female","Casper","e",1,0.426989535015309,7,32,0
"210",2,25,"Female","Handel","e",1,0.596573780989274,7,33,0
"211",2,25,"Female","Karriere","e",1,0.394296832993859,7,34,0
"212",2,25,"Female","Ruth","i",1,0.606912754010409,7,35,0
"213",2,25,"Female","Mette","i",1,0.368577932997141,7,36,0
"214",2,25,"Female","Birthe","i",1,0.564375724003185,7,37,0
"215",2,25,"Female","Jens","e",1,0.581524795998121,7,38,0
"216",2,25,"Female","Sebastian","e",1,0.418212212010985,7,39,0
"217",2,25,"Female","Forældre","i",1,0.672209351003403,7,40,0
"218",3,24,"Male","Casper","e",1,0.929250044398941,3,3,1
"219",3,24,"Male","Akademiker","i",1,1.20850450664875,3,4,1
"220",3,24,"Male","Rasmus","e",1,0.64746892551193,3,5,1
"221",3,24,"Male","Camilla","i",1,0.677508115011733,3,6,1
"222",3,24,"Male","Virksomhed","i",1,1.27085964338039,3,7,1
"223",3,24,"Male","Ledelse","i",1,0.571393891557818,3,8,1
"224",3,24,"Male","Ægteskab","e",1,0.594245363259688,3,9,1
"225",3,24,"Male","Ole","e",1,0.731258696236182,3,10,1
"226",3,24,"Male","Mette","i",1,0.536777089262614,3,11,1
"227",3,24,"Male","Virksomhed","i",1,0.594110150093911,3,12,1
"228",3,24,"Male","Hanne","i",1,0.60691880871309,3,13,1
"229",3,24,"Male","Kontor","i",1,0.583671514992602,3,14,1
"230",3,24,"Male","Camilla","i",1,0.598160297668073,3,15,1
"231",3,24,"Male","Kontor","i",1,0.533630147809163,3,16,1
"232",3,24,"Male","Ægteskab","e",1,1.28105284203775,3,18,1
"233",3,24,"Male","Hanne","i",1,1.67175151477568,3,19,1
"234",3,24,"Male","Sebastian","e",1,0.602990933111869,3,20,1
"235",3,24,"Male","Josefine","i",1,0.454674136271933,4,3,1
"236",3,24,"Male","Løn","i",1,0.77573981237947,4,4,1
"237",3,24,"Male","Ledelse","i",1,0.54210350633366,4,5,1
"238",3,24,"Male","Karriere","i",1,0.61936466768384,4,6,1
"239",3,24,"Male","Rasmus","e",1,0.734187422407558,4,7,1
"240",3,24,"Male","Camilla","i",1,0.66638895162032,4,8,1
"241",3,24,"Male","Casper","e",1,0.731116343114991,4,9,1
"242",3,24,"Male","Handel","i",1,0.593504591437522,4,10,1
"243",3,24,"Male","Ledelse","i",1,0.733571153803496,4,11,1
"244",3,24,"Male","Ægteskab","e",1,0.57159247196978,4,12,1
"245",3,24,"Male","Mikkel","e",1,0.494739181391196,4,13,1
"246",3,24,"Male","Jens","e",1,0.543457423016662,4,14,1
"247",3,24,"Male","Akademiker","i",1,0.637871468061348,4,15,1
"248",3,24,"Male","Line","i",1,0.762182349484647,4,16,1
"249",3,24,"Male","Kontor","i",1,0.937307053507539,4,17,1
"250",3,24,"Male","Sebastian","e",1,0.616515819943743,4,18,1
"251",3,24,"Male","Familie","e",1,0.887989946902962,4,19,1
"252",3,24,"Male","Birthe","i",1,1.14973051077686,4,21,1
"253",3,24,"Male","Kontor","i",1,1.32168908469612,4,22,1
"254",3,24,"Male","Bryllup","e",1,0.66574813934858,4,23,1
"255",3,24,"Male","Jens","e",1,0.530901340796845,4,24,1
"256",3,24,"Male","Løn","i",1,0.825675865053199,4,25,1
"257",3,24,"Male","Josefine","i",1,0.81790757845738,4,26,1
"258",3,24,"Male","Hjem","e",1,0.858698669209844,4,27,1
"259",3,24,"Male","Slægtninge","e",1,0.598514618643094,4,28,1
"260",3,24,"Male","Karriere","i",1,0.666032399400137,4,29,1
"261",3,24,"Male","Morten","e",1,1.52264575133449,4,30,1
"262",3,24,"Male","Børn","e",1,0.805934296222404,4,31,1
"263",3,24,"Male","Mette","i",1,0.66958141035866,4,32,1
"264",3,24,"Male","Familie","e",1,0.94511951864115,4,33,1
"265",3,24,"Male","Line","i",1,0.903542138752528,4,34,1
"266",3,24,"Male","Bryllup","e",1,1.19963130983524,4,35,1
"267",3,24,"Male","Forældre","e",1,2.21792524986085,4,36,1
"268",3,24,"Male","Virksomhed","i",1,0.817063277063426,4,37,1
"269",3,24,"Male","Hanne","i",1,1.06811575317988,4,38,1
"270",3,24,"Male","Birthe","i",1,0.570104680868099,4,39,1
"271",3,24,"Male","Ægteskab","e",1,0.648056187987095,4,40,1
"272",3,24,"Male","Casper","e",1,0.520048141217558,6,3,0
"273",3,24,"Male","Akademiker","e",1,0.537183175008977,6,4,0
"274",3,24,"Male","Rasmus","e",1,0.480501190148061,6,5,0
"275",3,24,"Male","Camilla","i",1,0.555259792250581,6,6,0
"276",3,24,"Male","Virksomhed","e",1,0.524418694956694,6,7,0
"277",3,24,"Male","Ledelse","e",1,0.627224881376605,6,8,0
"278",3,24,"Male","Ole","e",1,1.18801814981271,6,10,0
"279",3,24,"Male","Mette","i",1,0.605087406613166,6,11,0
"280",3,24,"Male","Virksomhed","e",1,0.856214406143408,6,12,0
"281",3,24,"Male","Hanne","i",1,0.630379409063607,6,13,0
"282",3,24,"Male","Kontor","e",1,0.652844876138261,6,14,0
"283",3,24,"Male","Camilla","i",1,0.628921070310753,6,15,0
"284",3,24,"Male","Kontor","e",1,0.651635097601684,6,16,0
"285",3,24,"Male","Morten","e",1,0.686970359296538,6,17,0
"286",3,24,"Male","Ægteskab","i",1,0.947914816613775,6,18,0
"287",3,24,"Male","Hanne","i",1,0.607424407819053,6,19,0
"288",3,24,"Male","Sebastian","e",1,0.912829453794984,6,20,0
"289",3,24,"Male","Josefine","i",1,0.99635504570324,7,3,0
"290",3,24,"Male","Løn","e",1,0.554922874929616,7,4,0
"291",3,24,"Male","Ledelse","e",1,0.505558912322158,7,5,0
"292",3,24,"Male","Karriere","e",1,1.05286522503593,7,6,0
"293",3,24,"Male","Rasmus","e",1,1.01577843961422,7,7,0
"294",3,24,"Male","Camilla","i",1,0.565887190256035,7,8,0
"295",3,24,"Male","Casper","e",1,0.574500224465737,7,9,0
"296",3,24,"Male","Handel","e",1,0.768830999586498,7,10,0
"297",3,24,"Male","Ledelse","e",1,0.71487960673403,7,11,0
"298",3,24,"Male","Ægteskab","i",1,0.657979406561935,7,12,0
"299",3,24,"Male","Mikkel","e",1,0.657330561836716,7,13,0
"300",3,24,"Male","Jens","e",1,0.54714253966813,7,14,0
"301",3,24,"Male","Akademiker","e",1,0.703722958482103,7,15,0
"302",3,24,"Male","Line","i",1,0.556181294523412,7,16,0
"303",3,24,"Male","Kontor","e",1,1.00337943670456,7,17,0
"304",3,24,"Male","Sebastian","e",1,0.490047329076333,7,18,0
"305",3,24,"Male","Familie","i",1,0.65530236432096,7,19,0
"306",3,24,"Male","Handel","e",1,0.827352419059025,7,20,0
"307",3,24,"Male","Birthe","i",1,0.719035068847006,7,21,0
"308",3,24,"Male","Kontor","e",1,0.774722366768401,7,22,0
"309",3,24,"Male","Bryllup","i",1,0.659410524152918,7,23,0
"310",3,24,"Male","Jens","e",1,0.624232787988149,7,24,0
"311",3,24,"Male","Løn","e",1,0.965386767667951,7,25,0
"312",3,24,"Male","Josefine","i",1,0.569487519795075,7,26,0
"313",3,24,"Male","Slægtninge","i",1,1.12342909519793,7,28,0
"314",3,24,"Male","Karriere","e",1,0.780748054588912,7,29,0
"315",3,24,"Male","Morten","e",1,1.14047175561427,7,30,0
"316",3,24,"Male","Børn","i",1,0.840196777542587,7,31,0
"317",3,24,"Male","Mette","i",1,0.679092741949717,7,32,0
"318",3,24,"Male","Familie","i",1,0.578615524253109,7,33,0
"319",3,24,"Male","Line","i",1,0.537641918053851,7,34,0
"320",3,24,"Male","Bryllup","i",1,0.629392754548462,7,35,0
"321",3,24,"Male","Forældre","i",1,0.523219626338687,7,36,0
"322",3,24,"Male","Virksomhed","e",1,0.641650743054925,7,37,0
"323",3,24,"Male","Hanne","i",1,0.72847321574227,7,38,0
"324",3,24,"Male","Birthe","i",1,1.34980672996608,7,39,0
"325",3,24,"Male","Ægteskab","i",1,0.868582617928041,7,40,0
"326",4,23,"Female","Hanne","i",1,0.588928088836838,3,3,1
"327",4,23,"Female","Ægteskab","e",1,0.813807067985181,3,4,1
"328",4,23,"Female","Virksomhed","i",1,0.67935803355067,3,5,1
"329",4,23,"Female","Ledelse","i",1,0.798194095201325,3,6,1
"330",4,23,"Female","Casper","e",1,0.585683190496638,3,7,1
"331",4,23,"Female","Mikkel","e",1,0.675512307352619,3,8,1
"332",4,23,"Female","Rasmus","e",1,0.682273224898381,3,9,1
"333",4,23,"Female","Slægtninge","e",1,0.814303980441764,3,11,1
"334",4,23,"Female","Sebastian","e",1,0.555955252231797,3,12,1
"335",4,23,"Female","Ruth","i",1,0.619102906202897,3,13,1
"336",4,23,"Female","Jens","e",1,0.665245206211694,3,14,1
"337",4,23,"Female","Josefine","i",1,0.634487949224422,3,15,1
"338",4,23,"Female","Line","i",1,0.682211217761505,3,16,1
"339",4,23,"Female","Birthe","i",1,0.410953883780167,3,17,1
"340",4,23,"Female","Ledelse","i",1,0.845852363127051,3,18,1
"341",4,23,"Female","Camilla","i",1,0.572170763422037,3,19,1
"342",4,23,"Female","Kontor","i",1,0.891501599369803,3,20,1
"343",4,23,"Female","Børn","e",1,0.595454234455246,4,3,1
"344",4,23,"Female","Handel","i",1,0.635784967744257,4,4,1
"345",4,23,"Female","Josefine","i",1,0.598267220862908,4,5,1
"346",4,23,"Female","Kontor","i",1,0.747876362001989,4,7,1
"347",4,23,"Female","Jens","e",1,0.553759343834827,4,8,1
"348",4,23,"Female","Ægteskab","e",1,0.618414413038408,4,9,1
"349",4,23,"Female","Hjem","e",1,1.22516592257307,4,10,1
"350",4,23,"Female","Virksomhed","i",1,0.611377242952585,4,11,1
"351",4,23,"Female","Hanne","i",1,0.646655890275724,4,12,1
"352",4,23,"Female","Hjem","e",1,0.776413763000164,4,13,1
"353",4,23,"Female","Morten","e",1,0.689430132915732,4,14,1
"354",4,23,"Female","Ole","e",1,0.624634371633874,4,16,1
"355",4,23,"Female","Karriere","i",1,0.543463163456181,4,17,1
"356",4,23,"Female","Rasmus","e",1,0.642325225344393,4,18,1
"357",4,23,"Female","Løn","i",1,0.968624809698667,4,19,1
"358",4,23,"Female","Casper","e",1,0.534698345902143,4,20,1
"359",4,23,"Female","Virksomhed","i",1,1.16581652726745,4,21,1
"360",4,23,"Female","Akademiker","i",1,1.01476796495263,4,22,1
"361",4,23,"Female","Karriere","i",1,0.493833495856961,4,23,1
"362",4,23,"Female","Mikkel","e",1,0.627657327131601,4,24,1
"363",4,23,"Female","Ole","e",1,0.648607618757524,4,26,1
"364",4,23,"Female","Hanne","i",1,0.679635996639263,4,27,1
"365",4,23,"Female","Camilla","i",1,0.861834385315888,4,28,1
"366",4,23,"Female","Sebastian","e",1,0.551528369338484,4,29,1
"367",4,23,"Female","Line","i",1,0.477023571293103,4,30,1
"368",4,23,"Female","Morten","e",1,0.544947486341698,4,31,1
"369",4,23,"Female","Ledelse","i",1,0.599629667645786,4,32,1
"370",4,23,"Female","Jens","e",1,0.687044782011071,4,34,1
"371",4,23,"Female","Ruth","i",1,0.829409349826165,4,36,1
"372",4,23,"Female","Ledelse","i",1,0.790864850074286,4,37,1
"373",4,23,"Female","Løn","i",1,0.559305776521796,4,38,1
"374",4,23,"Female","Bryllup","e",1,0.836801457364345,4,39,1
"375",4,23,"Female","Familie","e",1,1.49526607480948,4,40,1
"376",4,23,"Female","Hanne","i",1,0.486885701568099,6,3,0
"377",4,23,"Female","Virksomhed","e",1,0.9149377362628,6,5,0
"378",4,23,"Female","Ledelse","e",1,0.638216075691162,6,6,0
"379",4,23,"Female","Casper","e",1,0.522206684778212,6,7,0
"380",4,23,"Female","Mikkel","e",1,0.425331417529378,6,8,0
"381",4,23,"Female","Rasmus","e",1,0.405150014528772,6,9,0
"382",4,23,"Female","Slægtninge","i",1,0.792397923389217,6,11,0
"383",4,23,"Female","Sebastian","e",1,0.626145635556895,6,12,0
"384",4,23,"Female","Ruth","i",1,0.712155539600644,6,13,0
"385",4,23,"Female","Jens","e",1,0.53074400027981,6,14,0
"386",4,23,"Female","Josefine","i",1,0.618069738819031,6,15,0
"387",4,23,"Female","Line","i",1,1.01990942677367,6,16,0
"388",4,23,"Female","Birthe","i",1,0.447869519848609,6,17,0
"389",4,23,"Female","Ledelse","e",1,1.50678272696678,6,18,0
"390",4,23,"Female","Camilla","i",1,0.855450214672601,6,19,0
"391",4,23,"Female","Børn","i",1,0.978897042485187,7,3,0
"392",4,23,"Female","Handel","e",1,0.668627803155687,7,4,0
"393",4,23,"Female","Josefine","i",1,0.58255888542044,7,5,0
"394",4,23,"Female","Kontor","e",1,0.624698944593547,7,7,0
"395",4,23,"Female","Jens","e",1,0.501238432480022,7,8,0
"396",4,23,"Female","Ægteskab","i",1,0.570860060543055,7,9,0
"397",4,23,"Female","Hjem","i",1,0.763233181089163,7,10,0
"398",4,23,"Female","Virksomhed","e",1,0.630353569053113,7,11,0
"399",4,23,"Female","Hanne","i",1,0.612838473491138,7,12,0
"400",4,23,"Female","Hjem","i",1,0.604872479074402,7,13,0
"401",4,23,"Female","Morten","e",1,0.658131489384687,7,14,0
"402",4,23,"Female","Slægtninge","i",1,0.696747831912944,7,15,0
"403",4,23,"Female","Ole","e",1,0.741266827448271,7,16,0
"404",4,23,"Female","Rasmus","e",1,0.618410991941346,7,18,0
"405",4,23,"Female","Casper","e",1,1.22337455739034,7,20,0
"406",4,23,"Female","Virksomhed","e",1,0.526078924391186,7,21,0
"407",4,23,"Female","Akademiker","e",1,0.492713090759935,7,22,0
"408",4,23,"Female","Karriere","e",1,0.556676673324546,7,23,0
"409",4,23,"Female","Mikkel","e",1,0.515337575459853,7,24,0
"410",4,23,"Female","Birthe","i",1,0.548932621750282,7,25,0
"411",4,23,"Female","Ole","e",1,0.627700518292841,7,26,0
"412",4,23,"Female","Hanne","i",1,0.670434135594405,7,27,0
"413",4,23,"Female","Camilla","i",1,0.685663519252557,7,28,0
"414",4,23,"Female","Sebastian","e",1,0.565967482601991,7,29,0
"415",4,23,"Female","Line","i",1,0.532183849049034,7,30,0
"416",4,23,"Female","Morten","e",1,0.644715707923751,7,31,0
"417",4,23,"Female","Ledelse","e",1,0.665456885792082,7,32,0
"418",4,23,"Female","Familie","i",1,0.68297839583829,7,33,0
"419",4,23,"Female","Jens","e",1,0.775349378207466,7,34,0
"420",4,23,"Female","Slægtninge","i",1,0.488816475932254,7,35,0
"421",4,23,"Female","Ruth","i",1,0.650830895814579,7,36,0
"422",4,23,"Female","Ledelse","e",1,0.661960110155633,7,37,0
"423",4,23,"Female","Løn","e",1,0.794142248661956,7,38,0
"424",4,23,"Female","Bryllup","i",1,0.548444262007251,7,39,0
"425",4,23,"Female","Familie","i",1,0.531470980640734,7,40,0
"426",5,24,"Male","Morten","e",1,0.787367500000983,3,3,1
"427",5,24,"Male","Handel","i",1,1.3913266999989,3,4,1
"428",5,24,"Male","Ægteskab","e",1,0.867794400001003,3,5,1
"429",5,24,"Male","Ruth","i",1,0.811635100000785,3,6,1
"430",5,24,"Male","Ægteskab","e",1,1.37217000000055,3,7,1
"431",5,24,"Male","Hjem","e",1,0.771990399998685,3,8,1
"432",5,24,"Male","Løn","i",1,0.756543600000441,3,9,1
"433",5,24,"Male","Rasmus","e",1,0.764858000000459,3,10,1
"434",5,24,"Male","Ole","e",1,0.657216899999185,3,11,1
"435",5,24,"Male","Sebastian","e",1,0.651215899999443,3,12,1
"436",5,24,"Male","Line","i",1,0.824094699999478,3,13,1
"437",5,24,"Male","Hjem","e",1,0.877899900000557,3,14,1
"438",5,24,"Male","Sebastian","e",1,1.17890369999986,3,15,1
"439",5,24,"Male","Børn","e",1,1.04581709999911,3,16,1
"440",5,24,"Male","Casper","e",1,0.736974999999802,3,17,1
"441",5,24,"Male","Familie","e",1,0.727745000000141,3,18,1
"442",5,24,"Male","Mikkel","e",1,0.698989399999846,3,19,1
"443",5,24,"Male","Løn","i",1,0.580739100001665,3,20,1
"444",5,24,"Male","Line","i",1,1.3131932999986,4,3,1
"445",5,24,"Male","Bryllup","e",1,1.20053390000066,4,4,1
"446",5,24,"Male","Akademiker","i",1,0.826213899999857,4,5,1
"447",5,24,"Male","Løn","i",1,0.679565599999478,4,6,1
"448",5,24,"Male","Ægteskab","e",1,0.861707699999897,4,7,1
"449",5,24,"Male","Josefine","i",1,0.852046800000608,4,8,1
"450",5,24,"Male","Virksomhed","i",1,0.955503299999691,4,9,1
"451",5,24,"Male","Mette","i",1,0.763450999998895,4,10,1
"452",5,24,"Male","Forældre","e",1,0.711915200001386,4,11,1
"453",5,24,"Male","Birthe","i",1,0.743024700001115,4,12,1
"454",5,24,"Male","Hjem","e",1,0.866180600000007,4,13,1
"455",5,24,"Male","Jens","e",1,0.960533999999825,4,14,1
"456",5,24,"Male","Familie","e",1,1.22015139999894,4,15,1
"457",5,24,"Male","Slægtninge","e",1,0.689938800000164,4,16,1
"458",5,24,"Male","Ole","e",1,0.757408299999952,4,17,1
"459",5,24,"Male","Løn","i",1,0.66596539999955,4,18,1
"460",5,24,"Male","Morten","e",1,0.872344600000361,4,19,1
"461",5,24,"Male","Hanne","i",1,0.57285740000043,4,20,1
"462",5,24,"Male","Camilla","i",1,0.743205300001136,4,21,1
"463",5,24,"Male","Hjem","e",1,0.787034999999378,4,22,1
"464",5,24,"Male","Kontor","i",1,0.787844700000278,4,23,1
"465",5,24,"Male","Karriere","i",1,0.654707199999393,4,24,1
"466",5,24,"Male","Birthe","i",1,0.892625200000111,4,25,1
"467",5,24,"Male","Jens","e",1,0.76754609999989,4,26,1
"468",5,24,"Male","Akademiker","i",1,0.79860280000139,4,27,1
"469",5,24,"Male","Camilla","i",1,0.654433899999276,4,28,1
"470",5,24,"Male","Virksomhed","i",1,0.783454000000347,4,29,1
"471",5,24,"Male","Morten","e",1,0.589509499999622,4,30,1
"472",5,24,"Male","Karriere","i",1,0.843665399999736,4,31,1
"473",5,24,"Male","Kontor","i",1,0.728603599998678,4,32,1
"474",5,24,"Male","Handel","i",1,0.689504800000577,4,33,1
"475",5,24,"Male","Josefine","i",1,0.748003700000481,4,34,1
"476",5,24,"Male","Ruth","i",1,0.639226000001145,4,35,1
"477",5,24,"Male","Casper","e",1,0.660026699999435,4,36,1
"478",5,24,"Male","Handel","i",1,0.751732099999572,4,37,1
"479",5,24,"Male","Ledelse","i",1,1.78083119999974,4,38,1
"480",5,24,"Male","Rasmus","e",1,0.671098699998765,4,39,1
"481",5,24,"Male","Line","i",1,0.607314999999289,4,40,1
"482",5,24,"Male","Morten","e",1,0.648219900000186,6,3,0
"483",5,24,"Male","Handel","e",1,0.803940800000419,6,4,0
"484",5,24,"Male","Ægteskab","i",1,0.720008400001461,6,5,0
"485",5,24,"Male","Ruth","i",1,0.53555790000064,6,6,0
"486",5,24,"Male","Ægteskab","i",1,0.715805899999395,6,7,0
"487",5,24,"Male","Hjem","i",1,0.670575099999041,6,8,0
"488",5,24,"Male","Løn","e",1,0.666445500000918,6,9,0
"489",5,24,"Male","Rasmus","e",1,0.52192549999927,6,10,0
"490",5,24,"Male","Ole","e",1,0.565297700000883,6,11,0
"491",5,24,"Male","Sebastian","e",1,0.559466799999427,6,12,0
"492",5,24,"Male","Line","i",1,0.761779399999796,6,13,0
"493",5,24,"Male","Hjem","i",1,0.774600999999166,6,14,0
"494",5,24,"Male","Sebastian","e",1,0.893278199999259,6,15,0
"495",5,24,"Male","Børn","i",1,0.871075900000505,6,16,0
"496",5,24,"Male","Casper","e",1,0.764766300000701,6,17,0
"497",5,24,"Male","Familie","i",1,0.699536800000715,6,18,0
"498",5,24,"Male","Mikkel","e",1,0.534483599998566,6,19,0
"499",5,24,"Male","Løn","e",1,0.591297700000723,6,20,0
"500",5,24,"Male","Line","i",1,0.601825900001131,7,3,0
"501",5,24,"Male","Bryllup","i",1,0.662522599999647,7,4,0
"502",5,24,"Male","Akademiker","e",1,0.635095799998453,7,5,0
"503",5,24,"Male","Løn","e",1,0.533418299999539,7,6,0
"504",5,24,"Male","Ægteskab","i",1,0.61952939999901,7,7,0
"505",5,24,"Male","Josefine","i",1,0.64313840000068,7,8,0
"506",5,24,"Male","Virksomhed","e",1,0.702980100000786,7,9,0
"507",5,24,"Male","Mette","i",1,0.628670000000056,7,10,0
"508",5,24,"Male","Forældre","i",1,0.884155199999441,7,11,0
"509",5,24,"Male","Birthe","i",1,0.628187199999957,7,12,0
"510",5,24,"Male","Hjem","i",1,0.554261999999653,7,13,0
"511",5,24,"Male","Jens","e",1,0.843794600001274,7,14,0
"512",5,24,"Male","Familie","i",1,0.803619199999957,7,15,0
"513",5,24,"Male","Slægtninge","i",1,0.99302759999955,7,16,0
"514",5,24,"Male","Ole","e",1,0.535763800000495,7,17,0
"515",5,24,"Male","Løn","e",1,0.575603299999784,7,18,0
"516",5,24,"Male","Morten","e",1,0.553551799999696,7,19,0
"517",5,24,"Male","Hanne","i",1,0.629780600000231,7,20,0
"518",5,24,"Male","Camilla","i",1,0.538690499999575,7,21,0
"519",5,24,"Male","Hjem","i",1,0.663831600000776,7,22,0
"520",5,24,"Male","Kontor","e",1,0.608467600000949,7,23,0
"521",5,24,"Male","Karriere","e",1,0.579455399998551,7,24,0
"522",5,24,"Male","Birthe","i",1,0.579500599998937,7,25,0
"523",5,24,"Male","Jens","e",1,0.585772999998881,7,26,0
"524",5,24,"Male","Akademiker","e",1,1.04650570000013,7,27,0
"525",5,24,"Male","Camilla","i",1,0.635666300000594,7,28,0
"526",5,24,"Male","Virksomhed","e",1,0.634068900000784,7,29,0
"527",5,24,"Male","Morten","e",1,0.782957800000077,7,30,0
"528",5,24,"Male","Karriere","e",1,0.732742899999721,7,31,0
"529",5,24,"Male","Kontor","e",1,0.807778399999734,7,32,0
"530",5,24,"Male","Handel","e",1,0.660547500001485,7,33,0
"531",5,24,"Male","Josefine","i",1,0.632599200000186,7,34,0
"532",5,24,"Male","Ruth","i",1,0.716056400000525,7,35,0
"533",5,24,"Male","Casper","e",1,0.603705699999409,7,36,0
"534",5,24,"Male","Handel","e",1,0.622740599999815,7,37,0
"535",5,24,"Male","Ledelse","e",1,0.595422299998972,7,38,0
"536",5,24,"Male","Rasmus","e",1,0.635706299999583,7,39,0
"537",5,24,"Male","Line","i",1,0.642438700000639,7,40,0
"538",6,21,"Female","Rasmus","e",1,0.615710342157399,3,3,1
"539",6,21,"Female","Karriere","i",1,1.46050481367274,3,4,1
"540",6,21,"Female","Akademiker","i",1,0.872275320783956,3,5,1
"541",6,21,"Female","Hjem","e",1,1.30376463805442,3,6,1
"542",6,21,"Female","Slægtninge","e",1,0.632252758485265,3,7,1
"543",6,21,"Female","Børn","e",1,0.881927666749107,3,8,1
"544",6,21,"Female","Casper","e",1,1.03390146663878,3,9,1
"545",6,21,"Female","Familie","e",1,0.902238201873843,3,10,1
"546",6,21,"Female","Camilla","i",1,0.803969912172761,3,11,1
"547",6,21,"Female","Morten","e",1,1.08537886015256,3,12,1
"548",6,21,"Female","Mette","i",1,0.818898249184713,3,13,1
"549",6,21,"Female","Kontor","i",1,0.824504017567961,3,14,1
"550",6,21,"Female","Ledelse","i",1,0.816391673724866,3,15,1
"551",6,21,"Female","Birthe","i",1,1.16777365942835,3,16,1
"552",6,21,"Female","Rasmus","e",1,0.897998398868367,3,17,1
"553",6,21,"Female","Løn","i",1,0.842574833572144,3,18,1
"554",6,21,"Female","Ole","e",1,0.999209694651654,3,19,1
"555",6,21,"Female","Løn","i",1,1.32999242271762,3,20,1
"556",6,21,"Female","Handel","i",1,0.803948938497342,4,3,1
"557",6,21,"Female","Camilla","i",1,1.16311973816482,4,4,1
"558",6,21,"Female","Akademiker","i",1,1.835292957403,4,5,1
"559",6,21,"Female","Josefine","i",1,0.706869007466594,4,6,1
"560",6,21,"Female","Casper","e",1,0.773904394038254,4,7,1
"561",6,21,"Female","Sebastian","e",1,0.55616255212226,4,8,1
"562",6,21,"Female","Karriere","i",1,0.83206390630221,4,9,1
"563",6,21,"Female","Hjem","e",1,0.791419631161261,4,10,1
"564",6,21,"Female","Løn","i",1,0.757755122263916,4,11,1
"565",6,21,"Female","Hjem","e",1,0.696563800534932,4,12,1
"566",6,21,"Female","Kontor","i",1,0.929475845914567,4,13,1
"567",6,21,"Female","Akademiker","i",1,0.835138555557933,4,14,1
"568",6,21,"Female","Morten","e",1,0.798086131224409,4,15,1
"569",6,21,"Female","Virksomhed","i",1,1.03581676341128,4,16,1
"570",6,21,"Female","Rasmus","e",1,0.693128136568703,4,17,1
"571",6,21,"Female","Casper","e",1,0.588008153863484,4,18,1
"572",6,21,"Female","Bryllup","e",1,0.940359390369849,4,19,1
"573",6,21,"Female","Forældre","e",1,0.606625177490059,4,20,1
"574",6,21,"Female","Mette","i",1,0.636697835609084,4,21,1
"575",6,21,"Female","Børn","e",1,1.21545660548145,4,22,1
"576",6,21,"Female","Slægtninge","e",1,0.627330642135348,4,23,1
"577",6,21,"Female","Forældre","e",1,0.699796867877012,4,24,1
"578",6,21,"Female","Line","i",1,0.812994387088111,4,25,1
"579",6,21,"Female","Ole","e",1,0.909346933767665,4,26,1
"580",6,21,"Female","Birthe","i",1,0.988325703976443,4,27,1
"581",6,21,"Female","Handel","i",1,0.783778971555876,4,28,1
"582",6,21,"Female","Bryllup","e",1,0.815095323050627,4,29,1
"583",6,21,"Female","Jens","e",1,1.60311632882804,4,30,1
"584",6,21,"Female","Ole","e",1,0.594896439200966,4,31,1
"585",6,21,"Female","Familie","e",1,0.847479099960765,4,32,1
"586",6,21,"Female","Mette","i",1,0.86052784009371,4,33,1
"587",6,21,"Female","Mikkel","e",1,0.718123830272816,4,34,1
"588",6,21,"Female","Morten","e",1,1.18042345371214,4,35,1
"589",6,21,"Female","Familie","e",1,0.727810091106221,4,36,1
"590",6,21,"Female","Hanne","i",1,0.811623513000086,4,37,1
"591",6,21,"Female","Jens","e",1,0.886008159199264,4,38,1
"592",6,21,"Female","Børn","e",1,0.704802878841292,4,39,1
"593",6,21,"Female","Ledelse","i",1,0.708037284930469,4,40,1
"594",6,21,"Female","Rasmus","e",1,0.98092021708726,6,3,0
"595",6,21,"Female","Karriere","e",1,0.869479130313266,6,4,0
"596",6,21,"Female","Akademiker","e",1,0.846188550523948,6,5,0
"597",6,21,"Female","Hjem","i",1,0.812467368115904,6,6,0
"598",6,21,"Female","Slægtninge","i",1,0.903024937259033,6,7,0
"599",6,21,"Female","Børn","i",1,0.95922899042489,6,8,0
"600",6,21,"Female","Casper","e",1,0.692839414055925,6,9,0
"601",6,21,"Female","Familie","i",1,1.11831062971032,6,10,0
"602",6,21,"Female","Camilla","i",1,0.816920923942234,6,11,0
"603",6,21,"Female","Morten","e",1,0.837207807926461,6,12,0
"604",6,21,"Female","Mette","i",1,0.924730890081264,6,13,0
"605",6,21,"Female","Kontor","e",1,1.1190737139259,6,14,0
"606",6,21,"Female","Ledelse","e",1,0.699730376916705,6,15,0
"607",6,21,"Female","Birthe","i",1,0.936570744146593,6,16,0
"608",6,21,"Female","Rasmus","e",1,0.681954084633617,6,17,0
"609",6,21,"Female","Løn","e",1,1.01791686043725,6,18,0
"610",6,21,"Female","Ole","e",1,1.00260073380196,6,19,0
"611",6,21,"Female","Løn","e",1,0.758399058220675,6,20,0
"612",6,21,"Female","Handel","e",1,1.02213078102795,7,3,0
"613",6,21,"Female","Camilla","i",1,1.00352312860196,7,4,0
"614",6,21,"Female","Akademiker","e",1,0.724382905842504,7,5,0
"615",6,21,"Female","Josefine","i",1,0.957155721844174,7,6,0
"616",6,21,"Female","Casper","e",1,0.755562705453485,7,7,0
"617",6,21,"Female","Sebastian","e",1,1.28308059330448,7,8,0
"618",6,21,"Female","Karriere","e",1,0.561195337970275,7,9,0
"619",6,21,"Female","Hjem","i",1,0.822873427096056,7,10,0
"620",6,21,"Female","Løn","e",1,0.734446692542406,7,11,0
"621",6,21,"Female","Hjem","i",1,0.903695648099529,7,12,0
"622",6,21,"Female","Kontor","e",1,1.02474713351694,7,13,0
"623",6,21,"Female","Akademiker","e",1,0.94541939732153,7,14,0
"624",6,21,"Female","Morten","e",1,0.805562125344295,7,15,0
"625",6,21,"Female","Virksomhed","e",1,0.679184222826734,7,16,0
"626",6,21,"Female","Rasmus","e",1,0.712244065565756,7,17,0
"627",6,21,"Female","Casper","e",1,0.72754903594614,7,18,0
"628",6,21,"Female","Bryllup","i",1,0.677028844598681,7,19,0
"629",6,21,"Female","Forældre","i",1,0.881202513643075,7,20,0
"630",6,21,"Female","Mette","i",1,1.1190473852912,7,21,0
"631",6,21,"Female","Børn","i",1,0.97135890572099,7,22,0
"632",6,21,"Female","Slægtninge","i",1,1.06923048090539,7,23,0
"633",6,21,"Female","Forældre","i",1,0.6875589605188,7,24,0
"634",6,21,"Female","Line","i",1,0.870888381759869,7,25,0
"635",6,21,"Female","Ole","e",1,0.711314084561309,7,26,0
"636",6,21,"Female","Birthe","i",1,0.762197968142573,7,27,0
"637",6,21,"Female","Handel","e",1,0.703137481003068,7,28,0
"638",6,21,"Female","Bryllup","i",1,0.765918784629321,7,29,0
"639",6,21,"Female","Jens","e",1,0.75588846654864,7,30,0
"640",6,21,"Female","Ole","e",1,0.757123234972823,7,31,0
"641",6,21,"Female","Familie","i",1,0.74776139651658,7,32,0
"642",6,21,"Female","Mette","i",1,1.48724132112693,7,33,0
"643",6,21,"Female","Mikkel","e",1,0.79397707892349,7,34,0
"644",6,21,"Female","Morten","e",1,1.39590147914714,7,35,0
"645",6,21,"Female","Familie","i",1,0.72112797232694,7,36,0
"646",6,21,"Female","Hanne","i",1,0.84548972605262,7,37,0
"647",6,21,"Female","Jens","e",1,0.791175087215379,7,38,0
"648",6,21,"Female","Børn","i",1,0.780503510613926,7,39,0
"649",6,21,"Female","Ledelse","e",1,0.905514109006617,7,40,0
"650",7,24,"Male","Ledelse","i",1,1.34349352557911,3,3,1
"651",7,24,"Male","Ole","e",1,1.15888968715444,3,4,1
"652",7,24,"Male","Bryllup","e",1,1.24241118010832,3,5,1
"653",7,24,"Male","Børn","e",1,2.23055028138333,3,6,1
"654",7,24,"Male","Casper","e",1,1.83631010417594,3,7,1
"655",7,24,"Male","Familie","e",1,1.10058415011736,3,8,1
"656",7,24,"Male","Akademiker","i",1,0.930630676855799,3,9,1
"657",7,24,"Male","Birthe","i",1,1.28252424695529,3,10,1
"658",7,24,"Male","Familie","e",1,0.960326542466646,3,11,1
"659",7,24,"Male","Mette","i",1,0.866159918572521,3,12,1
"660",7,24,"Male","Karriere","i",1,1.39540206291713,3,13,1
"661",7,24,"Male","Løn","i",1,0.793552111659665,3,14,1
"662",7,24,"Male","Casper","e",1,0.87116753050941,3,15,1
"663",7,24,"Male","Rasmus","e",1,1.16327508937684,3,16,1
"664",7,24,"Male","Ægteskab","e",1,1.42316843708977,3,17,1
"665",7,24,"Male","Sebastian","e",1,0.890096816699952,3,18,1
"666",7,24,"Male","Bryllup","e",1,1.7450000855315,3,19,1
"667",7,24,"Male","Jens","e",1,1.09517798191519,3,20,1
"668",7,24,"Male","Rasmus","e",1,0.892474897787906,4,3,1
"669",7,24,"Male","Hanne","i",1,0.801611330622109,4,4,1
"670",7,24,"Male","Ægteskab","e",1,1.40434178340365,4,5,1
"671",7,24,"Male","Kontor","i",1,0.819170472619589,4,6,1
"672",7,24,"Male","Løn","i",1,0.680678572040051,4,7,1
"673",7,24,"Male","Bryllup","e",1,0.6824177656963,4,8,1
"674",7,24,"Male","Børn","e",1,1.72954918662435,4,9,1
"675",7,24,"Male","Jens","e",1,0.795127948542358,4,10,1
"676",7,24,"Male","Line","i",1,0.651082345488248,4,11,1
"677",7,24,"Male","Ruth","i",1,0.640024973894469,4,12,1
"678",7,24,"Male","Børn","e",1,1.15830468176864,4,13,1
"679",7,24,"Male","Handel","i",1,0.651518533733906,4,14,1
"680",7,24,"Male","Mikkel","e",1,0.994143103947863,4,15,1
"681",7,24,"Male","Familie","e",1,1.2340735704056,4,16,1
"682",7,24,"Male","Løn","i",1,0.60731812659651,4,17,1
"683",7,24,"Male","Karriere","i",1,0.68987701201695,4,18,1
"684",7,24,"Male","Akademiker","i",1,1.32071038812865,4,19,1
"685",7,24,"Male","Hanne","i",1,0.959405843197601,4,20,1
"686",7,24,"Male","Handel","i",1,0.991166333114961,4,21,1
"687",7,24,"Male","Forældre","e",1,0.769946631073253,4,22,1
"688",7,24,"Male","Camilla","i",1,1.04873590939678,4,23,1
"689",7,24,"Male","Ledelse","i",1,1.05884008141584,4,24,1
"690",7,24,"Male","Mikkel","e",1,0.847594977851259,4,25,1
"691",7,24,"Male","Mette","i",1,1.34131472260924,4,26,1
"692",7,24,"Male","Slægtninge","e",1,0.901037016155897,4,27,1
"693",7,24,"Male","Virksomhed","i",1,0.682688458968187,4,28,1
"694",7,24,"Male","Forældre","e",1,1.7410128119518,4,29,1
"695",7,24,"Male","Casper","e",1,0.773747883213218,4,30,1
"696",7,24,"Male","Josefine","i",1,0.720827987912344,4,31,1
"697",7,24,"Male","Ole","e",1,0.79541574724135,4,32,1
"698",7,24,"Male","Karriere","i",1,0.802213441435015,4,33,1
"699",7,24,"Male","Ledelse","i",1,0.653947503480595,4,34,1
"700",7,24,"Male","Hjem","e",1,1.49548887292622,4,35,1
"701",7,24,"Male","Mette","i",1,0.919505311234389,4,36,1
"702",7,24,"Male","Ole","e",1,1.65900643164059,4,37,1
"703",7,24,"Male","Rasmus","e",1,0.740736131789163,4,38,1
"704",7,24,"Male","Line","i",1,0.754528232500888,4,39,1
"705",7,24,"Male","Hjem","e",1,1.08490788732888,4,40,1
"706",7,24,"Male","Ledelse","e",1,0.934254032588797,6,3,0
"707",7,24,"Male","Ole","e",1,0.991312156809727,6,4,0
"708",7,24,"Male","Bryllup","i",1,1.19712799985427,6,5,0
"709",7,24,"Male","Børn","i",1,1.35584791569272,6,6,0
"710",7,24,"Male","Casper","e",1,0.96345384104643,6,7,0
"711",7,24,"Male","Familie","i",1,1.06060065684142,6,8,0
"712",7,24,"Male","Akademiker","e",1,0.948036297719227,6,9,0
"713",7,24,"Male","Birthe","i",1,0.935811053524958,6,10,0
"714",7,24,"Male","Familie","i",1,1.48873779099085,6,11,0
"715",7,24,"Male","Mette","i",1,1.16506773745641,6,12,0
"716",7,24,"Male","Karriere","e",1,1.10652913909871,6,13,0
"717",7,24,"Male","Løn","e",1,1.14434494791203,6,14,0
"718",7,24,"Male","Casper","e",1,1.03400087237242,6,15,0
"719",7,24,"Male","Rasmus","e",1,1.07356913157855,6,16,0
"720",7,24,"Male","Ægteskab","i",1,0.915042934590019,6,17,0
"721",7,24,"Male","Sebastian","e",1,0.954458955529844,6,18,0
"722",7,24,"Male","Bryllup","i",1,1.8321812832437,6,19,0
"723",7,24,"Male","Jens","e",1,0.896404012921266,6,20,0
"724",7,24,"Male","Rasmus","e",1,0.893325464829104,7,3,0
"725",7,24,"Male","Hanne","i",1,0.807277501240605,7,4,0
"726",7,24,"Male","Ægteskab","i",1,1.3506397427409,7,5,0
"727",7,24,"Male","Kontor","e",1,1.70393552968744,7,6,0
"728",7,24,"Male","Løn","e",1,0.715081849455601,7,7,0
"729",7,24,"Male","Bryllup","i",1,1.01713706576265,7,8,0
"730",7,24,"Male","Børn","i",1,1.81657130393432,7,9,0
"731",7,24,"Male","Jens","e",1,0.833049810986267,7,10,0
"732",7,24,"Male","Line","i",1,1.00001924359822,7,11,0
"733",7,24,"Male","Ruth","i",1,0.653973161592148,7,12,0
"734",7,24,"Male","Børn","i",1,1.24762747815112,7,13,0
"735",7,24,"Male","Handel","e",1,0.735227758676047,7,14,0
"736",7,24,"Male","Mikkel","e",1,1.10811823268887,7,15,0
"737",7,24,"Male","Familie","i",1,0.829547048459062,7,16,0
"738",7,24,"Male","Løn","e",1,1.09530670021195,7,17,0
"739",7,24,"Male","Karriere","e",1,1.30691016232595,7,18,0
"740",7,24,"Male","Akademiker","e",1,1.81522254151059,7,19,0
"741",7,24,"Male","Hanne","i",1,1.32635004533222,7,20,0
"742",7,24,"Male","Handel","e",1,0.88960546348244,7,21,0
"743",7,24,"Male","Forældre","i",1,0.939742306858534,7,22,0
"744",7,24,"Male","Camilla","i",1,0.856718581606401,7,23,0
"745",7,24,"Male","Ledelse","e",1,0.767386377236107,7,24,0
"746",7,24,"Male","Mikkel","e",1,0.772828039189335,7,25,0
"747",7,24,"Male","Mette","i",1,0.976680607564049,7,26,0
"748",7,24,"Male","Slægtninge","i",1,1.80146935564699,7,27,0
"749",7,24,"Male","Virksomhed","e",1,0.884124031406827,7,28,0
"750",7,24,"Male","Forældre","i",1,2.30853603256401,7,29,0
"751",7,24,"Male","Casper","e",1,0.815131455165101,7,30,0
"752",7,24,"Male","Josefine","i",1,1.4610013513302,7,31,0
"753",7,24,"Male","Ole","e",1,0.857710268377559,7,32,0
"754",7,24,"Male","Karriere","e",1,1.27229007371352,7,33,0
"755",7,24,"Male","Ledelse","e",1,0.680135902570328,7,34,0
"756",7,24,"Male","Hjem","i",1,0.835069961176487,7,35,0
"757",7,24,"Male","Mette","i",1,0.878479670209344,7,36,0
"758",7,24,"Male","Ole","e",1,0.982366021780763,7,37,0
"759",7,24,"Male","Rasmus","e",1,0.864524640375748,7,38,0
"760",7,24,"Male","Line","i",1,0.672915276838467,7,39,0
"761",7,24,"Male","Hjem","i",1,1.05139879576745,7,40,0
"762",8,21,"Female","Bryllup","e",1,1.25644445401849,3,3,1
"763",8,21,"Female","Ruth","i",1,0.742866268003127,3,4,1
"764",8,21,"Female","Handel","i",1,0.587272990000201,3,5,1
"765",8,21,"Female","Virksomhed","i",1,0.484409017022699,3,6,1
"766",8,21,"Female","Kontor","i",1,0.886881101992913,3,8,1
"767",8,21,"Female","Morten","e",1,0.595662667998113,3,9,1
"768",8,21,"Female","Mette","i",1,0.548009304009611,3,10,1
"769",8,21,"Female","Hjem","e",1,0.555106432992034,3,11,1
"770",8,21,"Female","Jens","e",1,0.650889368989738,3,12,1
"771",8,21,"Female","Løn","i",1,0.543291500012856,3,13,1
"772",8,21,"Female","Mette","i",1,0.805927081004484,3,14,1
"773",8,21,"Female","Line","i",1,0.573576115013566,3,15,1
"774",8,21,"Female","Ole","e",1,0.583063836005749,3,16,1
"775",8,21,"Female","Børn","e",1,0.643714277015533,3,17,1
"776",8,21,"Female","Kontor","i",1,0.539840741985245,3,18,1
"777",8,21,"Female","Forældre","e",1,0.81480255999486,3,19,1
"778",8,21,"Female","Mette","i",1,1.34889950999059,3,20,1
"779",8,21,"Female","Mette","i",1,0.498984802979976,4,3,1
"780",8,21,"Female","Slægtninge","e",1,0.548091832984937,4,4,1
"781",8,21,"Female","Virksomhed","i",1,0.550961966015166,4,5,1
"782",8,21,"Female","Familie","e",1,0.657356006006012,4,6,1
"783",8,21,"Female","Hanne","i",1,0.511168695986271,4,7,1
"784",8,21,"Female","Josefine","i",1,0.535940445988672,4,8,1
"785",8,21,"Female","Ægteskab","e",1,0.599358650011709,4,9,1
"786",8,21,"Female","Bryllup","e",1,0.707778043986764,4,10,1
"787",8,21,"Female","Camilla","i",1,0.560152806981932,4,12,1
"788",8,21,"Female","Ledelse","i",1,0.567889472004026,4,14,1
"789",8,21,"Female","Virksomhed","i",1,0.428395627997816,4,15,1
"790",8,21,"Female","Ægteskab","e",1,0.633102566003799,4,16,1
"791",8,21,"Female","Familie","e",1,0.57889845900354,4,17,1
"792",8,21,"Female","Børn","e",1,0.447334141004831,4,18,1
"793",8,21,"Female","Jens","e",1,0.450814392999746,4,19,1
"794",8,21,"Female","Karriere","i",1,0.57457822401193,4,20,1
"795",8,21,"Female","Hjem","e",1,0.669794519984862,4,21,1
"796",8,21,"Female","Løn","i",1,0.63945461899857,4,22,1
"797",8,21,"Female","Kontor","i",1,0.589842289016815,4,23,1
"798",8,21,"Female","Akademiker","i",1,0.559747364983195,4,25,1
"799",8,21,"Female","Line","i",1,0.628577720024623,4,26,1
"800",8,21,"Female","Mikkel","e",1,0.844498734979425,4,27,1
"801",8,21,"Female","Sebastian","e",1,0.79429428599542,4,28,1
"802",8,21,"Female","Slægtninge","e",1,0.669196206989,4,29,1
"803",8,21,"Female","Morten","e",1,0.508921031985665,4,30,1
"804",8,21,"Female","Jens","e",1,0.464472374005709,4,31,1
"805",8,21,"Female","Morten","e",1,0.484058420988731,4,32,1
"806",8,21,"Female","Casper","e",1,0.522882533987286,4,33,1
"807",8,21,"Female","Børn","e",1,1.00964364598622,4,34,1
"808",8,21,"Female","Forældre","e",1,0.462212026002817,4,35,1
"809",8,21,"Female","Bryllup","e",1,0.489171603985596,4,36,1
"810",8,21,"Female","Akademiker","i",1,0.471038666000823,4,37,1
"811",8,21,"Female","Line","i",1,0.518804221006576,4,38,1
"812",8,21,"Female","Ledelse","i",1,0.486077340989141,4,39,1
"813",8,21,"Female","Kontor","i",1,0.430853765981738,4,40,1
"814",8,21,"Female","Bryllup","i",1,0.473659590992611,6,3,0
"815",8,21,"Female","Ruth","i",1,0.481186380027793,6,4,0
"816",8,21,"Female","Handel","e",1,0.516541277000215,6,5,0
"817",8,21,"Female","Virksomhed","e",1,0.482505580992438,6,6,0
"818",8,21,"Female","Camilla","i",1,0.46384305000538,6,7,0
"819",8,21,"Female","Kontor","e",1,0.574593349010684,6,8,0
"820",8,21,"Female","Morten","e",1,0.688132525014225,6,9,0
"821",8,21,"Female","Mette","i",1,0.634680752002168,6,10,0
"822",8,21,"Female","Hjem","i",1,0.912720631982666,6,11,0
"823",8,21,"Female","Jens","e",1,0.588509880995844,6,12,0
"824",8,21,"Female","Løn","e",1,0.654927363008028,6,13,0
"825",8,21,"Female","Mette","i",1,0.533504463004647,6,14,0
"826",8,21,"Female","Line","i",1,0.444549178006127,6,15,0
"827",8,21,"Female","Ole","e",1,0.757547077984782,6,16,0
"828",8,21,"Female","Børn","i",1,0.715672495978652,6,17,0
"829",8,21,"Female","Kontor","e",1,0.74156390799908,6,18,0
"830",8,21,"Female","Forældre","i",1,0.630591122986516,6,19,0
"831",8,21,"Female","Mette","i",1,0.486414215003606,6,20,0
"832",8,21,"Female","Mette","i",1,0.467849516979186,7,3,0
"833",8,21,"Female","Slægtninge","i",1,0.534177959983936,7,4,0
"834",8,21,"Female","Virksomhed","e",1,0.557790115009993,7,5,0
"835",8,21,"Female","Familie","i",1,0.576853512000525,7,6,0
"836",8,21,"Female","Hanne","i",1,0.517787292017601,7,7,0
"837",8,21,"Female","Josefine","i",1,0.464262807014165,7,8,0
"838",8,21,"Female","Ægteskab","i",1,0.479152460990008,7,9,0
"839",8,21,"Female","Bryllup","i",1,0.4892903160071,7,10,0
"840",8,21,"Female","Rasmus","e",1,0.591073149989825,7,11,0
"841",8,21,"Female","Camilla","i",1,0.583585002023028,7,12,0
"842",8,21,"Female","Handel","e",1,0.998166578996461,7,13,0
"843",8,21,"Female","Ledelse","e",1,0.553269335010555,7,14,0
"844",8,21,"Female","Virksomhed","e",1,0.464536944986321,7,15,0
"845",8,21,"Female","Familie","i",1,0.461276704008924,7,17,0
"846",8,21,"Female","Børn","i",1,0.465120441978797,7,18,0
"847",8,21,"Female","Jens","e",1,0.51994286198169,7,19,0
"848",8,21,"Female","Karriere","e",1,0.660541732009733,7,20,0
"849",8,21,"Female","Løn","e",1,0.665578763000667,7,22,0
"850",8,21,"Female","Kontor","e",1,0.535537012998248,7,23,0
"851",8,21,"Female","Rasmus","e",1,0.685743405018002,7,24,0
"852",8,21,"Female","Akademiker","e",1,0.555225690972293,7,25,0
"853",8,21,"Female","Line","i",1,0.552361011010362,7,26,0
"854",8,21,"Female","Mikkel","e",1,0.622347946977243,7,27,0
"855",8,21,"Female","Sebastian","e",1,0.510151279013371,7,28,0
"856",8,21,"Female","Slægtninge","i",1,0.530636985989986,7,29,0
"857",8,21,"Female","Morten","e",1,0.620319588982966,7,30,0
"858",8,21,"Female","Jens","e",1,1.10338897199836,7,31,0
"859",8,21,"Female","Morten","e",1,0.588976399973035,7,32,0
"860",8,21,"Female","Casper","e",1,0.518672568985494,7,33,0
"861",8,21,"Female","Børn","i",1,0.556096162996255,7,34,0
"862",8,21,"Female","Bryllup","i",1,0.451260345027549,7,36,0
"863",8,21,"Female","Akademiker","e",1,0.635776821000036,7,37,0
"864",8,21,"Female","Line","i",1,0.674995181005215,7,38,0
"865",8,21,"Female","Ledelse","e",1,0.627262574998895,7,39,0
"866",8,21,"Female","Kontor","e",1,0.489117966993945,7,40,0
"867",9,23,"Male","Handel","i",1,1.8184367439826,3,3,1
"868",9,23,"Male","Morten","e",1,2.16623169998638,3,4,1
"869",9,23,"Male","Børn","e",1,1.40154446597444,3,5,1
"870",9,23,"Male","Løn","i",1,1.32635831896914,3,6,1
"871",9,23,"Male","Børn","e",1,1.1445460980176,3,7,1
"872",9,23,"Male","Rasmus","e",1,2.9939609959838,3,8,1
"873",9,23,"Male","Karriere","i",1,0.860196130990516,3,9,1
"874",9,23,"Male","Line","i",1,2.09249442600412,3,10,1
"875",9,23,"Male","Hjem","e",1,2.23920216003899,3,11,1
"876",9,23,"Male","Birthe","i",1,0.84605036501307,3,12,1
"877",9,23,"Male","Akademiker","i",1,2.21237161499448,3,13,1
"878",9,23,"Male","Casper","e",1,1.96188209496904,3,14,1
"879",9,23,"Male","Karriere","i",1,1.26474107702961,3,15,1
"880",9,23,"Male","Rasmus","e",1,0.737613042001612,3,16,1
"881",9,23,"Male","Ole","e",1,0.680136562965345,3,17,1
"882",9,23,"Male","Hanne","i",1,0.753178350976668,3,18,1
"883",9,23,"Male","Jens","e",1,0.712283303029835,3,19,1
"884",9,23,"Male","Børn","e",1,1.8978815189912,3,20,1
"885",9,23,"Male","Ægteskab","e",1,0.969646258978173,4,3,1
"886",9,23,"Male","Virksomhed","i",1,2.6396690789843,4,4,1
"887",9,23,"Male","Camilla","i",1,1.38754897803301,4,5,1
"888",9,23,"Male","Josefine","i",1,0.690817166992929,4,6,1
"889",9,23,"Male","Rasmus","e",1,2.74542728799861,4,8,1
"890",9,23,"Male","Akademiker","i",1,0.855366125993896,4,9,1
"891",9,23,"Male","Hanne","i",1,NA,4,10,1
"892",9,23,"Male","Kontor","i",1,1.75248894095421,4,11,1
"893",9,23,"Male","Slægtninge","e",1,NA,4,12,1
"894",9,23,"Male","Forældre","e",1,0.896186361031141,4,13,1
"895",9,23,"Male","Bryllup","e",1,1.80249034997541,4,14,1
"896",9,23,"Male","Mikkel","e",1,0.784765509015415,4,15,1
"897",9,23,"Male","Line","i",1,0.676918871002272,4,16,1
"898",9,23,"Male","Familie","e",1,1.30833541799802,4,17,1
"899",9,23,"Male","Slægtninge","e",1,1.02916409895988,4,18,1
"900",9,23,"Male","Casper","e",1,1.4754672239651,4,19,1
"901",9,23,"Male","Løn","i",1,1.70028033899143,4,20,1
"902",9,23,"Male","Ledelse","i",1,1.14785555005074,4,21,1
"903",9,23,"Male","Ole","e",1,0.877087484986987,4,22,1
"904",9,23,"Male","Line","i",1,0.947205737000331,4,23,1
"905",9,23,"Male","Ruth","i",1,1.08737212501001,4,24,1
"906",9,23,"Male","Hjem","e",1,1.90217526099877,4,25,1
"907",9,23,"Male","Kontor","i",1,0.758877195010427,4,26,1
"908",9,23,"Male","Forældre","e",1,1.33413789898623,4,27,1
"909",9,23,"Male","Birthe","i",1,0.799191773985513,4,28,1
"910",9,23,"Male","Jens","e",1,0.979496507963631,4,29,1
"911",9,23,"Male","Ledelse","i",1,0.959223967976868,4,30,1
"912",9,23,"Male","Morten","e",1,0.886785841954406,4,31,1
"913",9,23,"Male","Bryllup","e",1,0.869455588981509,4,32,1
"914",9,23,"Male","Hjem","e",1,0.88634230097523,4,33,1
"915",9,23,"Male","Sebastian","e",1,0.945085124985781,4,34,1
"916",9,23,"Male","Hanne","i",1,1.30073433800135,4,35,1
"917",9,23,"Male","Virksomhed","i",1,0.965020656003617,4,36,1
"918",9,23,"Male","Sebastian","e",1,2.56250625202665,4,37,1
"919",9,23,"Male","Camilla","i",1,2.75158301903866,4,38,1
"920",9,23,"Male","Josefine","i",1,0.759999170957599,4,39,1
"921",9,23,"Male","Jens","e",1,0.709888699988369,4,40,1
"922",9,23,"Male","Handel","e",1,0.96371097600786,6,3,0
"923",9,23,"Male","Morten","e",1,0.821710795979016,6,4,0
"924",9,23,"Male","Børn","i",1,1.12863161897985,6,5,0
"925",9,23,"Male","Løn","e",1,2.08845656597987,6,6,0
"926",9,23,"Male","Børn","i",1,1.65102615498472,6,7,0
"927",9,23,"Male","Rasmus","e",1,1.34602869296214,6,8,0
"928",9,23,"Male","Karriere","e",1,1.97357507899869,6,9,0
"929",9,23,"Male","Line","i",1,0.797709327016491,6,10,0
"930",9,23,"Male","Hjem","i",1,1.05473567399895,6,11,0
"931",9,23,"Male","Birthe","i",1,1.0303202860523,6,12,0
"932",9,23,"Male","Akademiker","e",1,2.37466899096034,6,13,0
"933",9,23,"Male","Casper","e",1,1.22065790201304,6,14,0
"934",9,23,"Male","Karriere","e",1,2.39186045801034,6,15,0
"935",9,23,"Male","Rasmus","e",1,0.835151862003841,6,16,0
"936",9,23,"Male","Ole","e",1,0.808816793025471,6,17,0
"937",9,23,"Male","Hanne","i",1,0.800240407988895,6,18,0
"938",9,23,"Male","Jens","e",1,1.90038253599778,6,19,0
"939",9,23,"Male","Børn","i",1,NA,6,20,0
"940",9,23,"Male","Ægteskab","i",1,0.896293567027897,7,3,0
"941",9,23,"Male","Virksomhed","e",1,1.1919362640474,7,4,0
"942",9,23,"Male","Camilla","i",1,0.829355799010955,7,5,0
"943",9,23,"Male","Josefine","i",1,NA,7,6,0
"944",9,23,"Male","Karriere","e",1,0.968891038966831,7,7,0
"945",9,23,"Male","Rasmus","e",1,0.74370261101285,7,8,0
"946",9,23,"Male","Akademiker","e",1,0.871521421009675,7,9,0
"947",9,23,"Male","Hanne","i",1,0.717119605047628,7,10,0
"948",9,23,"Male","Kontor","e",1,1.44745404605055,7,11,0
"949",9,23,"Male","Slægtninge","i",1,1.03806724300375,7,12,0
"950",9,23,"Male","Forældre","i",1,0.647476580983493,7,13,0
"951",9,23,"Male","Bryllup","i",1,0.95486748800613,7,14,0
"952",9,23,"Male","Mikkel","e",1,0.692524877027608,7,15,0
"953",9,23,"Male","Line","i",1,0.701309910044074,7,16,0
"954",9,23,"Male","Familie","i",1,2.44050644902745,7,17,0
"955",9,23,"Male","Slægtninge","i",1,NA,7,18,0
"956",9,23,"Male","Casper","e",1,0.767180956027005,7,19,0
"957",9,23,"Male","Løn","e",1,NA,7,20,0
"958",9,23,"Male","Ledelse","e",1,1.80816448200494,7,21,0
"959",9,23,"Male","Ole","e",1,1.74444681900786,7,22,0
"960",9,23,"Male","Line","i",1,1.74534439796116,7,23,0
"961",9,23,"Male","Ruth","i",1,NA,7,24,0
"962",9,23,"Male","Hjem","i",1,2.35942572698696,7,25,0
"963",9,23,"Male","Kontor","e",1,NA,7,26,0
"964",9,23,"Male","Forældre","i",1,0.99950145999901,7,27,0
"965",9,23,"Male","Birthe","i",1,0.866917006031144,7,28,0
"966",9,23,"Male","Jens","e",1,1.05252721102443,7,29,0
"967",9,23,"Male","Ledelse","e",1,2.43972784501966,7,30,0
"968",9,23,"Male","Morten","e",1,0.689814337005373,7,31,0
"969",9,23,"Male","Bryllup","i",1,0.926286862988491,7,32,0
"970",9,23,"Male","Hjem","i",1,1.42304131295532,7,33,0
"971",9,23,"Male","Sebastian","e",1,0.723402766045183,7,34,0
"972",9,23,"Male","Hanne","i",1,0.797900021017995,7,35,0
"973",9,23,"Male","Virksomhed","e",1,0.923698126978707,7,36,0
"974",9,23,"Male","Sebastian","e",1,0.817210681037977,7,37,0
"975",9,23,"Male","Camilla","i",1,0.767680899996776,7,38,0
"976",9,23,"Male","Josefine","i",1,0.640860545972828,7,39,0
"977",9,23,"Male","Jens","e",1,1.05169138399651,7,40,0
"978",10,26,"Female","Hanne","i",1,2.3749644117197,3,3,1
"979",10,26,"Female","Birthe","i",1,0.691099939023843,3,4,1
"980",10,26,"Female","Karriere","i",1,0.848695572232828,3,5,1
"981",10,26,"Female","Handel","i",1,0.748146508616628,3,6,1
"982",10,26,"Female","Sebastian","e",1,0.895257096912246,3,7,1
"983",10,26,"Female","Karriere","i",1,0.758025994844502,3,8,1
"984",10,26,"Female","Hjem","e",1,0.730551393062342,3,9,1
"985",10,26,"Female","Akademiker","i",1,1.28190829959931,3,10,1
"986",10,26,"Female","Line","i",1,0.793637930357363,3,11,1
"987",10,26,"Female","Camilla","i",1,1.2111520965118,3,13,1
"988",10,26,"Female","Løn","i",1,1.21724427532172,3,14,1
"989",10,26,"Female","Virksomhed","i",1,0.679418056795839,3,15,1
"990",10,26,"Female","Ledelse","i",1,0.722179332835367,3,16,1
"991",10,26,"Female","Mikkel","e",1,0.929394182516262,3,17,1
"992",10,26,"Female","Morten","e",1,0.734810384718003,3,18,1
"993",10,26,"Female","Ole","e",1,0.554234314156929,3,19,1
"994",10,26,"Female","Forældre","e",1,0.809417262469651,3,20,1
"995",10,26,"Female","Familie","e",1,0.600803871289827,4,3,1
"996",10,26,"Female","Sebastian","e",1,0.57926704644342,4,4,1
"997",10,26,"Female","Josefine","i",1,0.562933027977124,4,5,1
"998",10,26,"Female","Birthe","i",1,0.581749524542829,4,6,1
"999",10,26,"Female","Forældre","e",1,0.671502062119544,4,7,1
"1000",10,26,"Female","Casper","e",1,0.700057922978885,4,8,1
"1001",10,26,"Female","Ægteskab","e",1,0.917727472726256,4,9,1
"1002",10,26,"Female","Rasmus","e",1,0.545361563563347,4,10,1
"1003",10,26,"Female","Ruth","i",1,0.546220591117162,4,11,1
"1004",10,26,"Female","Camilla","i",1,0.49359455506783,4,12,1
"1005",10,26,"Female","Karriere","i",1,0.519829033437418,4,13,1
"1006",10,26,"Female","Sebastian","e",1,0.628140582412016,4,14,1
"1007",10,26,"Female","Bryllup","e",1,0.679916962166317,4,15,1
"1008",10,26,"Female","Løn","i",1,1.65161858641659,4,16,1
"1009",10,26,"Female","Line","i",1,0.553236503445078,4,17,1
"1010",10,26,"Female","Karriere","i",1,0.599904681410408,4,18,1
"1011",10,26,"Female","Hjem","e",1,0.5784521974565,4,19,1
"1012",10,26,"Female","Handel","i",1,0.642139384697657,4,20,1
"1013",10,26,"Female","Ægteskab","e",1,1.01859024877194,4,21,1
"1014",10,26,"Female","Mikkel","e",1,0.55681228931644,4,22,1
"1015",10,26,"Female","Line","i",1,0.639585506927688,4,24,1
"1016",10,26,"Female","Ruth","i",1,0.517615642951569,4,25,1
"1017",10,26,"Female","Forældre","e",1,0.889613397448556,4,26,1
"1018",10,26,"Female","Birthe","i",1,0.653280414262554,4,27,1
"1019",10,26,"Female","Hanne","i",1,0.664134506310802,4,29,1
"1020",10,26,"Female","Ledelse","i",1,0.511164680705406,4,30,1
"1021",10,26,"Female","Slægtninge","e",1,0.637280635593925,4,31,1
"1022",10,26,"Female","Rasmus","e",1,0.5112793664739,4,32,1
"1023",10,26,"Female","Mikkel","e",1,0.4558325962862,4,33,1
"1024",10,26,"Female","Jens","e",1,0.462573173514102,4,34,1
"1025",10,26,"Female","Slægtninge","e",1,0.58489646599628,4,35,1
"1026",10,26,"Female","Handel","i",1,0.716750278661493,4,36,1
"1027",10,26,"Female","Akademiker","i",1,0.548084123118315,4,37,1
"1028",10,26,"Female","Løn","i",1,0.540386790002231,4,38,1
"1029",10,26,"Female","Mette","i",1,0.507798185193678,4,39,1
"1030",10,26,"Female","Camilla","i",1,0.484096610918641,4,40,1
"1031",10,26,"Female","Hanne","i",1,0.716605248075211,6,3,0
"1032",10,26,"Female","Birthe","i",1,0.518816942785634,6,4,0
"1033",10,26,"Female","Karriere","e",1,1.44387984147761,6,5,0
"1034",10,26,"Female","Handel","e",1,0.575348542071879,6,6,0
"1035",10,26,"Female","Sebastian","e",1,0.518172114301706,6,7,0
"1036",10,26,"Female","Karriere","e",1,0.509184231719701,6,8,0
"1037",10,26,"Female","Hjem","i",1,0.638272198848426,6,9,0
"1038",10,26,"Female","Akademiker","e",1,0.775878149288474,6,10,0
"1039",10,26,"Female","Line","i",1,0.620080895867432,6,11,0
"1040",10,26,"Female","Ægteskab","i",1,0.660492229479132,6,12,0
"1041",10,26,"Female","Camilla","i",1,0.572255150356796,6,13,0
"1042",10,26,"Female","Løn","e",1,0.945991041109664,6,14,0
"1043",10,26,"Female","Virksomhed","e",1,0.690739370591473,6,15,0
"1044",10,26,"Female","Ledelse","e",1,0.850814804376569,6,16,0
"1045",10,26,"Female","Mikkel","e",1,0.577356658410281,6,17,0
"1046",10,26,"Female","Morten","e",1,0.444798220007215,6,18,0
"1047",10,26,"Female","Ole","e",1,0.409408069768688,6,19,0
"1048",10,26,"Female","Forældre","i",1,0.568606626067776,6,20,0
"1049",10,26,"Female","Familie","i",1,0.782004689157475,7,3,0
"1050",10,26,"Female","Sebastian","e",1,0.561523330310592,7,4,0
"1051",10,26,"Female","Birthe","i",1,0.637151669914601,7,6,0
"1052",10,26,"Female","Forældre","i",1,0.638197229156503,7,7,0
"1053",10,26,"Female","Casper","e",1,0.512646224349737,7,8,0
"1054",10,26,"Female","Ægteskab","i",1,0.647258742683334,7,9,0
"1055",10,26,"Female","Rasmus","e",1,0.644062713923631,7,10,0
"1056",10,26,"Female","Ruth","i",1,0.594208770926343,7,11,0
"1057",10,26,"Female","Camilla","i",1,0.61081455447129,7,12,0
"1058",10,26,"Female","Karriere","e",1,0.581376014888519,7,13,0
"1059",10,26,"Female","Sebastian","e",1,0.98377709730994,7,14,0
"1060",10,26,"Female","Bryllup","i",1,1.13108938973164,7,15,0
"1061",10,26,"Female","Løn","e",1,1.16517114060116,7,16,0
"1062",10,26,"Female","Line","i",1,0.599816324276617,7,17,0
"1063",10,26,"Female","Karriere","e",1,0.625350193178747,7,18,0
"1064",10,26,"Female","Hjem","i",1,0.867510730022332,7,19,0
"1065",10,26,"Female","Handel","e",1,0.771732058376074,7,20,0
"1066",10,26,"Female","Ægteskab","i",1,0.757830984453904,7,21,0
"1067",10,26,"Female","Mikkel","e",1,0.693414627836319,7,22,0
"1068",10,26,"Female","Hjem","i",1,0.830474370653974,7,23,0
"1069",10,26,"Female","Line","i",1,0.567354453960434,7,24,0
"1070",10,26,"Female","Ruth","i",1,0.436581900372403,7,25,0
"1071",10,26,"Female","Forældre","i",1,0.562681344046723,7,26,0
"1072",10,26,"Female","Birthe","i",1,0.531773755792528,7,27,0
"1073",10,26,"Female","Ledelse","e",1,0.586560078809271,7,28,0
"1074",10,26,"Female","Hanne","i",1,0.603282333118841,7,29,0
"1075",10,26,"Female","Ledelse","e",1,0.848280115256784,7,30,0
"1076",10,26,"Female","Slægtninge","i",1,1.30386504385388,7,31,0
"1077",10,26,"Female","Rasmus","e",1,0.642566890368471,7,32,0
"1078",10,26,"Female","Mikkel","e",1,0.436787174461642,7,33,0
"1079",10,26,"Female","Jens","e",1,0.424525169713888,7,34,0
"1080",10,26,"Female","Slægtninge","i",1,0.603392556426115,7,35,0
"1081",10,26,"Female","Handel","e",1,0.536229989113053,7,36,0
"1082",10,26,"Female","Akademiker","e",1,0.646393913892098,7,37,0
"1083",10,26,"Female","Løn","e",1,0.460150046448689,7,38,0
"1084",10,26,"Female","Mette","i",1,0.629782775358763,7,39,0
"1085",10,26,"Female","Camilla","i",1,0.458831383381039,7,40,0
"1086",11,23,"Male","Jens","e",1,1.14226269999926,3,3,1
"1087",11,23,"Male","Børn","e",1,0.782651400000759,3,4,1
"1088",11,23,"Male","Ægteskab","e",1,1.51474330000201,3,5,1
"1089",11,23,"Male","Bryllup","e",1,0.759475400001975,3,6,1
"1090",11,23,"Male","Hjem","e",1,0.83362599999964,3,7,1
"1091",11,23,"Male","Kontor","i",1,0.831687199999578,3,8,1
"1092",11,23,"Male","Handel","i",1,0.700820199999725,3,9,1
"1093",11,23,"Male","Morten","e",1,0.665339000002859,3,10,1
"1094",11,23,"Male","Ledelse","i",1,0.906598900000972,3,11,1
"1095",11,23,"Male","Line","i",1,0.767262299999857,3,12,1
"1096",11,23,"Male","Familie","e",1,0.64323929999955,3,13,1
"1097",11,23,"Male","Ægteskab","e",1,2.06929730000047,3,14,1
"1098",11,23,"Male","Ruth","i",1,0.758407000001171,3,15,1
"1099",11,23,"Male","Sebastian","e",1,0.801806399998895,3,16,1
"1100",11,23,"Male","Mette","i",1,1.06229209999947,3,17,1
"1101",11,23,"Male","Ruth","i",1,0.834454300002108,3,18,1
"1102",11,23,"Male","Familie","e",1,0.648391899998387,3,19,1
"1103",11,23,"Male","Mikkel","e",1,0.95237040000211,3,20,1
"1104",11,23,"Male","Børn","e",1,0.973139599998831,4,3,1
"1105",11,23,"Male","Mikkel","e",1,0.794985700002144,4,4,1
"1106",11,23,"Male","Ruth","i",1,0.722339199997805,4,5,1
"1107",11,23,"Male","Handel","i",1,0.784208999997645,4,6,1
"1108",11,23,"Male","Børn","e",1,0.855026500001259,4,7,1
"1109",11,23,"Male","Karriere","i",1,0.872553599998355,4,8,1
"1110",11,23,"Male","Rasmus","e",1,0.772903299999598,4,9,1
"1111",11,23,"Male","Bryllup","e",1,0.870886299999256,4,10,1
"1112",11,23,"Male","Handel","i",1,0.708199100001366,4,11,1
"1113",11,23,"Male","Løn","i",1,0.707601899997826,4,12,1
"1114",11,23,"Male","Ægteskab","e",1,0.799245899997914,4,13,1
"1115",11,23,"Male","Slægtninge","e",1,1.30040990000271,4,14,1
"1116",11,23,"Male","Morten","e",1,0.775525000000926,4,15,1
"1117",11,23,"Male","Ægteskab","e",1,0.817571899999166,4,16,1
"1118",11,23,"Male","Josefine","i",1,0.66704849999951,4,17,1
"1119",11,23,"Male","Hanne","i",1,0.760062599998491,4,18,1
"1120",11,23,"Male","Rasmus","e",1,0.678420999996888,4,19,1
"1121",11,23,"Male","Forældre","e",1,0.923789899999974,4,20,1
"1122",11,23,"Male","Birthe","i",1,0.718414299997676,4,21,1
"1123",11,23,"Male","Akademiker","i",1,0.729064600000129,4,22,1
"1124",11,23,"Male","Birthe","i",1,0.696968499996728,4,23,1
"1125",11,23,"Male","Ledelse","i",1,0.76104850000047,4,24,1
"1126",11,23,"Male","Kontor","i",1,0.770974200000637,4,25,1
"1127",11,23,"Male","Mette","i",1,0.875588699997024,4,26,1
"1128",11,23,"Male","Ole","e",1,0.695709899999201,4,27,1
"1129",11,23,"Male","Akademiker","i",1,0.831111499999679,4,28,1
"1130",11,23,"Male","Casper","e",1,0.712163900003361,4,29,1
"1131",11,23,"Male","Mette","i",1,0.753376799999387,4,30,1
"1132",11,23,"Male","Virksomhed","i",1,0.758465499999147,4,31,1
"1133",11,23,"Male","Line","i",1,0.661008500002936,4,32,1
"1134",11,23,"Male","Jens","e",1,0.644659199999296,4,33,1
"1135",11,23,"Male","Familie","e",1,0.660021899999265,4,34,1
"1136",11,23,"Male","Forældre","e",1,0.660972499998024,4,35,1
"1137",11,23,"Male","Josefine","i",1,1.24618249999912,4,37,1
"1138",11,23,"Male","Løn","i",1,0.784453799999028,4,38,1
"1139",11,23,"Male","Jens","e",1,0.791349800001626,4,39,1
"1140",11,23,"Male","Jens","e",1,0.985438499999873,6,3,0
"1141",11,23,"Male","Ægteskab","i",1,1.17179879999821,6,5,0
"1142",11,23,"Male","Bryllup","i",1,0.729290999999648,6,6,0
"1143",11,23,"Male","Hjem","i",1,0.932072800002061,6,7,0
"1144",11,23,"Male","Kontor","e",1,1.00995329999932,6,8,0
"1145",11,23,"Male","Handel","e",1,0.658786199997849,6,9,0
"1146",11,23,"Male","Morten","e",1,0.774733400001423,6,10,0
"1147",11,23,"Male","Ledelse","e",1,1.0689762999973,6,11,0
"1148",11,23,"Male","Line","i",1,0.680223800001841,6,12,0
"1149",11,23,"Male","Familie","i",1,0.687978500001918,6,13,0
"1150",11,23,"Male","Ægteskab","i",1,0.629797500001587,6,14,0
"1151",11,23,"Male","Ruth","i",1,1.12151050000102,6,15,0
"1152",11,23,"Male","Sebastian","e",1,0.683917999998812,6,16,0
"1153",11,23,"Male","Mette","i",1,0.632274499999767,6,17,0
"1154",11,23,"Male","Ruth","i",1,0.6819445000001,6,18,0
"1155",11,23,"Male","Familie","i",1,0.806730100001005,6,19,0
"1156",11,23,"Male","Mikkel","e",1,0.596876300001895,6,20,0
"1157",11,23,"Male","Børn","i",1,0.654910699999164,7,3,0
"1158",11,23,"Male","Mikkel","e",1,0.77409180000177,7,4,0
"1159",11,23,"Male","Ruth","i",1,0.710510999997496,7,5,0
"1160",11,23,"Male","Handel","e",1,1.02675459999955,7,6,0
"1161",11,23,"Male","Børn","i",1,0.549178299999767,7,7,0
"1162",11,23,"Male","Karriere","e",1,0.81403710000086,7,8,0
"1163",11,23,"Male","Rasmus","e",1,0.638398099999904,7,9,0
"1164",11,23,"Male","Bryllup","i",1,0.658621399998083,7,10,0
"1165",11,23,"Male","Handel","e",1,0.642701200002193,7,11,0
"1166",11,23,"Male","Løn","e",1,0.728789400000096,7,12,0
"1167",11,23,"Male","Ægteskab","i",1,0.992315699997562,7,13,0
"1168",11,23,"Male","Slægtninge","i",1,0.924325699998008,7,14,0
"1169",11,23,"Male","Morten","e",1,0.586555900001258,7,15,0
"1170",11,23,"Male","Ægteskab","i",1,1.08450649999941,7,16,0
"1171",11,23,"Male","Josefine","i",1,0.792047099999763,7,17,0
"1172",11,23,"Male","Hanne","i",1,0.655445199998212,7,18,0
"1173",11,23,"Male","Rasmus","e",1,0.693150900002365,7,19,0
"1174",11,23,"Male","Forældre","i",1,1.15048460000253,7,20,0
"1175",11,23,"Male","Birthe","i",1,0.693419899998844,7,21,0
"1176",11,23,"Male","Akademiker","e",1,0.686779399999068,7,22,0
"1177",11,23,"Male","Birthe","i",1,0.719737399998849,7,23,0
"1178",11,23,"Male","Ledelse","e",1,0.814155400003074,7,24,0
"1179",11,23,"Male","Kontor","e",1,0.792843100000027,7,25,0
"1180",11,23,"Male","Mette","i",1,0.620710499999404,7,26,0
"1181",11,23,"Male","Ole","e",1,0.683776800000487,7,27,0
"1182",11,23,"Male","Akademiker","e",1,0.686265999996976,7,28,0
"1183",11,23,"Male","Casper","e",1,0.663524600000528,7,29,0
"1184",11,23,"Male","Mette","i",1,0.637417800000549,7,30,0
"1185",11,23,"Male","Virksomhed","e",1,0.781074800001079,7,31,0
"1186",11,23,"Male","Line","i",1,0.638819499999954,7,32,0
"1187",11,23,"Male","Jens","e",1,0.650371499999892,7,33,0
"1188",11,23,"Male","Familie","i",1,0.646074299998872,7,34,0
"1189",11,23,"Male","Forældre","i",1,0.631439799999498,7,35,0
"1190",11,23,"Male","Hjem","i",1,0.597277799999574,7,36,0
"1191",11,23,"Male","Josefine","i",1,0.625387000000046,7,37,0
"1192",11,23,"Male","Løn","e",1,0.707819799998106,7,38,0
"1193",11,23,"Male","Jens","e",1,0.658274499997788,7,39,0
"1194",11,23,"Male","Karriere","e",1,0.714454099997965,7,40,0
"1195",12,24,"Female","Virksomhed","i",1,0.773191529413452,3,3,1
"1196",12,24,"Female","Jens","e",1,0.861372966581257,3,4,1
"1197",12,24,"Female","Mikkel","e",1,0.520758710947121,3,5,1
"1198",12,24,"Female","Kontor","i",1,1.00081250746734,3,6,1
"1199",12,24,"Female","Løn","i",1,0.990243068023119,3,7,1
"1200",12,24,"Female","Kontor","i",1,0.584317750297487,3,8,1
"1201",12,24,"Female","Børn","e",1,0.999460323975654,3,10,1
"1202",12,24,"Female","Rasmus","e",1,0.991713278926909,3,11,1
"1203",12,24,"Female","Handel","i",1,0.80680624692468,3,12,1
"1204",12,24,"Female","Børn","e",1,1.10341509725549,3,13,1
"1205",12,24,"Female","Forældre","e",1,0.884608114807634,3,14,1
"1206",12,24,"Female","Sebastian","e",1,1.04029267374426,3,15,1
"1207",12,24,"Female","Slægtninge","e",1,1.13864798756549,3,16,1
"1208",12,24,"Female","Casper","e",1,0.820709105202695,3,17,1
"1209",12,24,"Female","Hanne","i",1,0.624242229852825,3,18,1
"1210",12,24,"Female","Handel","i",1,0.633800311305095,3,19,1
"1211",12,24,"Female","Hanne","i",1,0.537327021447709,4,3,1
"1212",12,24,"Female","Casper","e",1,0.879750602965942,4,5,1
"1213",12,24,"Female","Camilla","i",1,0.591819760185899,4,6,1
"1214",12,24,"Female","Mikkel","e",1,0.4796022134542,4,7,1
"1215",12,24,"Female","Handel","i",1,0.543386189063312,4,8,1
"1216",12,24,"Female","Slægtninge","e",1,0.608215305925114,4,9,1
"1217",12,24,"Female","Camilla","i",1,0.709868544829078,4,10,1
"1218",12,24,"Female","Ruth","i",1,0.587853868404636,4,11,1
"1219",12,24,"Female","Sebastian","e",1,0.464519081084291,4,12,1
"1220",12,24,"Female","Jens","e",1,0.523889858217444,4,13,1
"1221",12,24,"Female","Løn","i",1,0.579962282557972,4,14,1
"1222",12,24,"Female","Kontor","i",1,0.465278989431681,4,15,1
"1223",12,24,"Female","Mette","i",1,0.65766921537579,4,16,1
"1224",12,24,"Female","Handel","i",1,0.430455346300732,4,17,1
"1225",12,24,"Female","Hjem","e",1,0.599639503256185,4,18,1
"1226",12,24,"Female","Forældre","e",1,0.655693966924446,4,19,1
"1227",12,24,"Female","Ruth","i",1,1.243879252841,4,21,1
"1228",12,24,"Female","Kontor","i",1,0.593208720354596,4,22,1
"1229",12,24,"Female","Jens","e",1,0.591866800095886,4,23,1
"1230",12,24,"Female","Birthe","i",1,0.996115786576411,4,24,1
"1231",12,24,"Female","Hanne","i",1,0.449874275160255,4,25,1
"1232",12,24,"Female","Line","i",1,0.343596585764317,4,26,1
"1233",12,24,"Female","Sebastian","e",1,0.479848103888799,4,27,1
"1234",12,24,"Female","Virksomhed","i",1,1.25053753785323,4,30,1
"1235",12,24,"Female","Rasmus","e",1,NA,4,32,1
"1236",12,24,"Female","Karriere","i",1,1.26445835683262,4,33,1
"1237",12,24,"Female","Morten","e",1,0.598026034451323,4,34,1
"1238",12,24,"Female","Casper","e",1,1.29742264072411,4,36,1
"1239",12,24,"Female","Bryllup","e",1,1.44686072767945,4,37,1
"1240",12,24,"Female","Ledelse","i",1,0.616498605901143,4,38,1
"1241",12,24,"Female","Akademiker","i",1,0.517882434447529,4,39,1
"1242",12,24,"Female","Line","i",1,0.72879269940313,4,40,1
"1243",12,24,"Female","Virksomhed","e",1,1.25002907923772,6,3,0
"1244",12,24,"Female","Jens","e",1,0.682154342212016,6,4,0
"1245",12,24,"Female","Mikkel","e",1,0.440334582031937,6,5,0
"1246",12,24,"Female","Kontor","e",1,0.640293528995244,6,6,0
"1247",12,24,"Female","Løn","e",1,0.686568823643029,6,7,0
"1248",12,24,"Female","Kontor","e",1,0.522615931986365,6,8,0
"1249",12,24,"Female","Ægteskab","i",1,1.08239424572093,6,9,0
"1250",12,24,"Female","Børn","i",1,0.506974307645578,6,10,0
"1251",12,24,"Female","Rasmus","e",1,0.60595439694589,6,11,0
"1252",12,24,"Female","Børn","i",1,1.17193812970072,6,13,0
"1253",12,24,"Female","Forældre","i",1,0.959738116012886,6,14,0
"1254",12,24,"Female","Sebastian","e",1,0.454733925173059,6,15,0
"1255",12,24,"Female","Slægtninge","i",1,0.622748071386013,6,16,0
"1256",12,24,"Female","Casper","e",1,0.496470724057872,6,17,0
"1257",12,24,"Female","Hanne","i",1,0.546566086792154,6,18,0
"1258",12,24,"Female","Handel","e",1,0.595128803834086,6,19,0
"1259",12,24,"Female","Mette","i",1,0.512205572944367,6,20,0
"1260",12,24,"Female","Hanne","i",1,0.698499426973285,7,3,0
"1261",12,24,"Female","Familie","i",1,1.58839525494841,7,4,0
"1262",12,24,"Female","Casper","e",1,0.750059013691498,7,5,0
"1263",12,24,"Female","Camilla","i",1,0.657206941395998,7,6,0
"1264",12,24,"Female","Mikkel","e",1,0.417869605356827,7,7,0
"1265",12,24,"Female","Handel","e",1,0.681331143860007,7,8,0
"1266",12,24,"Female","Slægtninge","i",1,0.632809052185621,7,9,0
"1267",12,24,"Female","Camilla","i",1,0.574352132185595,7,10,0
"1268",12,24,"Female","Ruth","i",1,0.464592634380097,7,11,0
"1269",12,24,"Female","Sebastian","e",1,0.459506765182596,7,12,0
"1270",12,24,"Female","Løn","e",1,1.04852765091346,7,14,0
"1271",12,24,"Female","Kontor","e",1,0.555729888292262,7,15,0
"1272",12,24,"Female","Mette","i",1,0.439707668352639,7,16,0
"1273",12,24,"Female","Handel","e",1,0.618278852547519,7,17,0
"1274",12,24,"Female","Hjem","i",1,0.779516258684453,7,18,0
"1275",12,24,"Female","Forældre","i",1,0.507139374967664,7,19,0
"1276",12,24,"Female","Karriere","e",1,0.62427558543277,7,20,0
"1277",12,24,"Female","Ruth","i",1,0.516969432617771,7,21,0
"1278",12,24,"Female","Kontor","e",1,1.09948298864765,7,22,0
"1279",12,24,"Female","Jens","e",1,0.816520415304694,7,23,0
"1280",12,24,"Female","Birthe","i",1,0.51388147653779,7,24,0
"1281",12,24,"Female","Hanne","i",1,0.390301226434531,7,25,0
"1282",12,24,"Female","Line","i",1,0.378370623133378,7,26,0
"1283",12,24,"Female","Sebastian","e",1,0.413274661754258,7,27,0
"1284",12,24,"Female","Josefine","i",1,0.647318297647871,7,29,0
"1285",12,24,"Female","Virksomhed","e",1,0.705221002019243,7,30,0
"1286",12,24,"Female","Karriere","e",1,NA,7,33,0
"1287",12,24,"Female","Morten","e",1,0.703808094287524,7,34,0
"1288",12,24,"Female","Bryllup","i",1,1.1221215853293,7,35,0
"1289",12,24,"Female","Casper","e",1,1.00783086160664,7,36,0
"1290",12,24,"Female","Bryllup","i",1,0.719551068235887,7,37,0
"1291",12,24,"Female","Ledelse","e",1,0.514105985173956,7,38,0
"1292",12,24,"Female","Akademiker","e",1,0.467893980618101,7,39,0
"1293",12,24,"Female","Line","i",1,0.379228459991282,7,40,0
"1294",13,23,"Male","Forældre","e",1,1.36730780557264,3,3,1
"1295",13,23,"Male","Line","i",1,0.831331317487638,3,4,1
"1296",13,23,"Male","Sebastian","e",1,0.652485956583405,3,5,1
"1297",13,23,"Male","Familie","e",1,1.32873370972811,3,6,1
"1298",13,23,"Male","Bryllup","e",1,0.725376499176491,3,7,1
"1299",13,23,"Male","Ole","e",1,0.718329355775495,3,8,1
"1300",13,23,"Male","Morten","e",1,0.727289562986698,3,9,1
"1301",13,23,"Male","Ledelse","i",1,0.815281573362881,3,10,1
"1302",13,23,"Male","Morten","e",1,0.716669760644436,3,11,1
"1303",13,23,"Male","Casper","e",1,0.743669530391344,3,12,1
"1304",13,23,"Male","Hjem","e",1,1.19160670584824,3,13,1
"1305",13,23,"Male","Akademiker","i",1,1.28108561350382,3,14,1
"1306",13,23,"Male","Ægteskab","e",1,0.785355311323656,3,15,1
"1307",13,23,"Male","Sebastian","e",1,0.715231058129575,3,16,1
"1308",13,23,"Male","Birthe","i",1,0.660054317268077,3,17,1
"1309",13,23,"Male","Camilla","i",1,0.52808593660302,3,18,1
"1310",13,23,"Male","Slægtninge","e",1,0.715897752161254,3,19,1
"1311",13,23,"Male","Bryllup","e",1,0.604788326876587,3,20,1
"1312",13,23,"Male","Josefine","i",1,0.524827436020132,4,3,1
"1313",13,23,"Male","Karriere","i",1,0.72582988681097,4,5,1
"1314",13,23,"Male","Børn","e",1,0.610041554580675,4,6,1
"1315",13,23,"Male","Line","i",1,0.63837024991517,4,7,1
"1316",13,23,"Male","Mette","i",1,1.35547688705265,4,8,1
"1317",13,23,"Male","Morten","e",1,0.540844604052836,4,9,1
"1318",13,23,"Male","Ledelse","i",1,1.40925062519091,4,10,1
"1319",13,23,"Male","Akademiker","i",1,0.810282706836006,4,11,1
"1320",13,23,"Male","Handel","i",1,0.672576473472873,4,12,1
"1321",13,23,"Male","Camilla","i",1,0.908056466389098,4,13,1
"1322",13,23,"Male","Ruth","i",1,0.61171409090457,4,14,1
"1323",13,23,"Male","Virksomhed","i",1,1.18278617417673,4,15,1
"1324",13,23,"Male","Birthe","i",1,0.684699684235966,4,16,1
"1325",13,23,"Male","Rasmus","e",1,0.615095309578464,4,17,1
"1326",13,23,"Male","Kontor","i",1,0.840419597778236,4,18,1
"1327",13,23,"Male","Familie","e",1,1.2574585837574,4,19,1
"1328",13,23,"Male","Slægtninge","e",1,0.597219966191915,4,20,1
"1329",13,23,"Male","Ledelse","i",1,0.645650334598031,4,21,1
"1330",13,23,"Male","Camilla","i",1,0.637378687577439,4,22,1
"1331",13,23,"Male","Rasmus","e",1,0.553844245281653,4,23,1
"1332",13,23,"Male","Hjem","e",1,2.38922659921809,4,25,1
"1333",13,23,"Male","Ægteskab","e",1,0.603136764199007,4,26,1
"1334",13,23,"Male","Hjem","e",1,0.53943089141103,4,27,1
"1335",13,23,"Male","Handel","i",1,0.667904706482659,4,28,1
"1336",13,23,"Male","Casper","e",1,0.662186488698353,4,29,1
"1337",13,23,"Male","Mikkel","e",1,0.606925853266148,4,30,1
"1338",13,23,"Male","Forældre","e",1,0.86291092717147,4,31,1
"1339",13,23,"Male","Sebastian","e",1,0.619900950870942,4,32,1
"1340",13,23,"Male","Mette","i",1,0.530812956174486,4,33,1
"1341",13,23,"Male","Josefine","i",1,0.516196559619857,4,34,1
"1342",13,23,"Male","Mikkel","e",1,0.607405569535331,4,35,1
"1343",13,23,"Male","Casper","e",1,0.733467862126417,4,36,1
"1344",13,23,"Male","Virksomhed","i",1,1.42462921280821,4,37,1
"1345",13,23,"Male","Ole","e",1,1.20871718070703,4,38,1
"1346",13,23,"Male","Hjem","e",1,0.735283643953153,4,39,1
"1347",13,23,"Male","Jens","e",1,0.998947301719454,4,40,1
"1348",13,23,"Male","Forældre","i",1,1.16103873965039,6,3,0
"1349",13,23,"Male","Line","i",1,0.66376308175677,6,4,0
"1350",13,23,"Male","Sebastian","e",1,0.598598425276577,6,5,0
"1351",13,23,"Male","Familie","i",1,0.89631524363358,6,6,0
"1352",13,23,"Male","Bryllup","i",1,0.762981791311176,6,7,0
"1353",13,23,"Male","Ole","e",1,0.619975920475554,6,8,0
"1354",13,23,"Male","Morten","e",1,0.577616751776077,6,9,0
"1355",13,23,"Male","Ledelse","e",1,0.854421957526938,6,10,0
"1356",13,23,"Male","Morten","e",1,0.598248567097471,6,11,0
"1357",13,23,"Male","Casper","e",1,0.573098047752865,6,12,0
"1358",13,23,"Male","Hjem","i",1,0.692236807575682,6,13,0
"1359",13,23,"Male","Akademiker","e",1,0.624283995595761,6,14,0
"1360",13,23,"Male","Ægteskab","i",1,0.699844884307822,6,15,0
"1361",13,23,"Male","Sebastian","e",1,0.559957838515402,6,16,0
"1362",13,23,"Male","Birthe","i",1,0.609241432495764,6,17,0
"1363",13,23,"Male","Camilla","i",1,0.531440826671314,6,18,0
"1364",13,23,"Male","Slægtninge","i",1,1.33600576194294,6,19,0
"1365",13,23,"Male","Josefine","i",1,0.64640181568393,7,3,0
"1366",13,23,"Male","Akademiker","e",1,0.61667547262914,7,4,0
"1367",13,23,"Male","Karriere","e",1,0.645312078864663,7,5,0
"1368",13,23,"Male","Børn","i",1,1.19061648225761,7,6,0
"1369",13,23,"Male","Line","i",1,0.591364750362118,7,7,0
"1370",13,23,"Male","Mette","i",1,0.512913515412947,7,8,0
"1371",13,23,"Male","Ledelse","e",1,1.18749676470179,7,10,0
"1372",13,23,"Male","Akademiker","e",1,1.3527931534918,7,11,0
"1373",13,23,"Male","Handel","e",1,0.643079947956721,7,12,0
"1374",13,23,"Male","Camilla","i",1,0.847281548383762,7,13,0
"1375",13,23,"Male","Ruth","i",1,0.614266181393759,7,14,0
"1376",13,23,"Male","Virksomhed","e",1,0.805266436640522,7,15,0
"1377",13,23,"Male","Birthe","i",1,0.648724534883513,7,16,0
"1378",13,23,"Male","Rasmus","e",1,0.682097167751635,7,17,0
"1379",13,23,"Male","Kontor","e",1,1.98902096829261,7,18,0
"1380",13,23,"Male","Familie","i",1,0.582081459840992,7,19,0
"1381",13,23,"Male","Slægtninge","i",1,0.761044183876947,7,20,0
"1382",13,23,"Male","Ledelse","e",1,0.70200561558886,7,21,0
"1383",13,23,"Male","Camilla","i",1,0.538774014814408,7,22,0
"1384",13,23,"Male","Rasmus","e",1,0.629216817469569,7,23,0
"1385",13,23,"Male","Løn","e",1,1.04271036562568,7,24,0
"1386",13,23,"Male","Hjem","i",1,0.570027417459642,7,25,0
"1387",13,23,"Male","Ægteskab","i",1,1.34256694161741,7,26,0
"1388",13,23,"Male","Hjem","i",1,0.86799324202002,7,27,0
"1389",13,23,"Male","Handel","e",1,0.635410289032734,7,28,0
"1390",13,23,"Male","Casper","e",1,0.668723124734242,7,29,0
"1391",13,23,"Male","Mikkel","e",1,0.4776746747375,7,30,0
"1392",13,23,"Male","Forældre","i",1,0.593484873097623,7,31,0
"1393",13,23,"Male","Sebastian","e",1,0.513174124062061,7,32,0
"1394",13,23,"Male","Josefine","i",1,0.676815380196786,7,34,0
"1395",13,23,"Male","Mikkel","e",1,0.644427169696428,7,35,0
"1396",13,23,"Male","Casper","e",1,1.2829553913034,7,36,0
"1397",13,23,"Male","Virksomhed","e",1,0.888195320832892,7,37,0
"1398",13,23,"Male","Ole","e",1,0.705181114084553,7,38,0
"1399",13,23,"Male","Hjem","i",1,0.701737866969779,7,39,0
"1400",13,23,"Male","Jens","e",1,0.558142056703218,7,40,0
"1401",14,25,"Female","Handel","i",1,0.85067694701138,3,3,1
"1402",14,25,"Female","Børn","e",1,1.43516147517948,3,4,1
"1403",14,25,"Female","Løn","i",1,NA,3,5,1
"1404",14,25,"Female","Line","i",1,0.747326850367244,3,6,1
"1405",14,25,"Female","Bryllup","e",1,0.851775970280869,3,7,1
"1406",14,25,"Female","Line","i",1,0.657635004550684,3,8,1
"1407",14,25,"Female","Mikkel","e",1,1.04176202940289,3,9,1
"1408",14,25,"Female","Morten","e",1,0.784652161266422,3,10,1
"1409",14,25,"Female","Ruth","i",1,0.589006773749134,3,11,1
"1410",14,25,"Female","Virksomhed","i",1,0.834374198195292,3,12,1
"1411",14,25,"Female","Ole","e",1,1.98545483313501,3,13,1
"1412",14,25,"Female","Kontor","i",1,1.35725141546573,3,14,1
"1413",14,25,"Female","Mikkel","e",1,0.591616205667378,3,15,1
"1414",14,25,"Female","Casper","e",1,0.567352594021941,3,16,1
"1415",14,25,"Female","Birthe","i",1,0.580075605947059,3,18,1
"1416",14,25,"Female","Børn","e",1,0.687944099481683,3,19,1
"1417",14,25,"Female","Ruth","i",1,0.625103487807792,3,20,1
"1418",14,25,"Female","Ruth","i",1,0.601708831527503,4,3,1
"1419",14,25,"Female","Familie","e",1,1.42150279672933,4,4,1
"1420",14,25,"Female","Handel","i",1,0.858456492365804,4,5,1
"1421",14,25,"Female","Børn","e",1,0.937979165581055,4,7,1
"1422",14,25,"Female","Bryllup","e",1,2.09515531721991,4,8,1
"1423",14,25,"Female","Jens","e",1,0.649107524688588,4,9,1
"1424",14,25,"Female","Ole","e",1,0.423541335243499,4,10,1
"1425",14,25,"Female","Mikkel","e",1,0.469812353549059,4,11,1
"1426",14,25,"Female","Camilla","i",1,0.501453105476685,4,12,1
"1427",14,25,"Female","Løn","i",1,0.698715382895898,4,13,1
"1428",14,25,"Female","Akademiker","i",1,0.787633208470652,4,14,1
"1429",14,25,"Female","Ægteskab","e",1,1.1127461042197,4,15,1
"1430",14,25,"Female","Hjem","e",1,0.899005747429328,4,16,1
"1431",14,25,"Female","Rasmus","e",1,0.690165666019311,4,17,1
"1432",14,25,"Female","Hjem","e",1,1.21906570190913,4,18,1
"1433",14,25,"Female","Line","i",1,0.799426113138907,4,19,1
"1434",14,25,"Female","Akademiker","i",1,0.933299550117226,4,20,1
"1435",14,25,"Female","Løn","i",1,1.09403020818718,4,21,1
"1436",14,25,"Female","Josefine","i",1,0.712043071456719,4,23,1
"1437",14,25,"Female","Ægteskab","e",1,1.13577727030497,4,24,1
"1438",14,25,"Female","Kontor","i",1,0.688792956003454,4,25,1
"1439",14,25,"Female","Ledelse","i",1,0.718987444619415,4,26,1
"1440",14,25,"Female","Sebastian","e",1,1.16589008056326,4,27,1
"1441",14,25,"Female","Ole","e",1,1.92466858247644,4,29,1
"1442",14,25,"Female","Forældre","e",1,0.852636372990673,4,30,1
"1443",14,25,"Female","Familie","e",1,0.484489232127089,4,31,1
"1444",14,25,"Female","Karriere","i",1,0.583431689505232,4,32,1
"1445",14,25,"Female","Slægtninge","e",1,0.953095225879224,4,33,1
"1446",14,25,"Female","Akademiker","i",1,0.67460785820731,4,34,1
"1447",14,25,"Female","Karriere","i",1,0.803300490922993,4,35,1
"1448",14,25,"Female","Børn","e",1,0.850820204941556,4,36,1
"1449",14,25,"Female","Ledelse","i",1,0.661616718833102,4,37,1
"1450",14,25,"Female","Handel","i",1,1.81736029149033,4,38,1
"1451",14,25,"Female","Line","i",1,0.629353329568403,4,39,1
"1452",14,25,"Female","Hanne","i",1,0.53816390412976,4,40,1
"1453",14,25,"Female","Handel","e",1,0.583843930158764,6,3,0
"1454",14,25,"Female","Børn","i",1,0.768417834100546,6,4,0
"1455",14,25,"Female","Løn","e",1,0.65776457809261,6,5,0
"1456",14,25,"Female","Line","i",1,0.917804177151993,6,6,0
"1457",14,25,"Female","Bryllup","i",1,1.7127366962668,6,7,0
"1458",14,25,"Female","Line","i",1,0.63476035304484,6,8,0
"1459",14,25,"Female","Mikkel","e",1,0.664464343746658,6,9,0
"1460",14,25,"Female","Morten","e",1,0.338496176962508,6,10,0
"1461",14,25,"Female","Virksomhed","e",1,0.823507979686838,6,12,0
"1462",14,25,"Female","Ole","e",1,2.62597629189258,6,13,0
"1463",14,25,"Female","Kontor","e",1,0.645672756189015,6,14,0
"1464",14,25,"Female","Mikkel","e",1,0.510638288775226,6,15,0
"1465",14,25,"Female","Casper","e",1,0.35379312702571,6,16,0
"1466",14,25,"Female","Birthe","i",1,0.688015086954692,6,18,0
"1467",14,25,"Female","Ruth","i",1,0.658932878344785,6,20,0
"1468",14,25,"Female","Ruth","i",1,0.816061990044545,7,3,0
"1469",14,25,"Female","Familie","i",1,0.826617317536147,7,4,0
"1470",14,25,"Female","Handel","e",1,0.65522185730515,7,5,0
"1471",14,25,"Female","Virksomhed","e",1,0.672728827776155,7,6,0
"1472",14,25,"Female","Børn","i",1,1.37960221344838,7,7,0
"1473",14,25,"Female","Bryllup","i",1,0.696535724680871,7,8,0
"1474",14,25,"Female","Jens","e",1,0.61619883342064,7,9,0
"1475",14,25,"Female","Ole","e",1,0.574914045253536,7,10,0
"1476",14,25,"Female","Mikkel","e",1,0.49136774946237,7,11,0
"1477",14,25,"Female","Camilla","i",1,0.534688510291744,7,12,0
"1478",14,25,"Female","Løn","e",1,1.13161680434132,7,13,0
"1479",14,25,"Female","Akademiker","e",1,0.643173226591898,7,14,0
"1480",14,25,"Female","Ægteskab","i",1,0.644102050951915,7,15,0
"1481",14,25,"Female","Hjem","i",1,0.409366500738543,7,16,0
"1482",14,25,"Female","Rasmus","e",1,0.640600998973241,7,17,0
"1483",14,25,"Female","Hjem","i",1,0.964706385449972,7,18,0
"1484",14,25,"Female","Line","i",1,0.60472451717942,7,19,0
"1485",14,25,"Female","Akademiker","e",1,0.898769692605129,7,20,0
"1486",14,25,"Female","Løn","e",1,0.562102940428304,7,21,0
"1487",14,25,"Female","Bryllup","i",1,0.595997759170132,7,22,0
"1488",14,25,"Female","Josefine","i",1,0.688239167997381,7,23,0
"1489",14,25,"Female","Ægteskab","i",1,NA,7,24,0
"1490",14,25,"Female","Kontor","e",1,0.625017533049686,7,25,0
"1491",14,25,"Female","Ledelse","e",1,0.552150151372189,7,26,0
"1492",14,25,"Female","Birthe","i",1,1.22605112809106,7,28,0
"1493",14,25,"Female","Ole","e",1,0.54811626553419,7,29,0
"1494",14,25,"Female","Forældre","i",1,1.01359581600991,7,30,0
"1495",14,25,"Female","Familie","i",1,0.505855185503606,7,31,0
"1496",14,25,"Female","Karriere","e",1,0.83504601358436,7,32,0
"1497",14,25,"Female","Slægtninge","i",1,1.10439267204492,7,33,0
"1498",14,25,"Female","Akademiker","e",1,0.696871846186696,7,34,0
"1499",14,25,"Female","Karriere","e",1,0.563233181077521,7,35,0
"1500",14,25,"Female","Børn","i",1,0.604197670239955,7,36,0
"1501",14,25,"Female","Ledelse","e",1,0.659645746723982,7,37,0
"1502",14,25,"Female","Handel","e",1,0.474795590242138,7,38,0
"1503",14,25,"Female","Line","i",1,0.552599596296204,7,39,0
"1504",14,25,"Female","Hanne","i",1,0.477609431953169,7,40,0
"1505",15,20,"Male","Ruth","i",1,0.655031567963306,3,3,1
"1506",15,20,"Male","Hjem","e",1,0.687363895005547,3,4,1
"1507",15,20,"Male","Virksomhed","i",1,0.742345369013492,3,5,1
"1508",15,20,"Male","Ole","e",1,0.600595558993518,3,6,1
"1509",15,20,"Male","Karriere","i",1,0.586992338008713,3,7,1
"1510",15,20,"Male","Akademiker","i",1,0.570905991015024,3,8,1
"1511",15,20,"Male","Slægtninge","e",1,0.94010916701518,3,10,1
"1512",15,20,"Male","Løn","i",1,0.620428860012908,3,11,1
"1513",15,20,"Male","Mette","i",1,0.486611148982774,3,12,1
"1514",15,20,"Male","Hanne","i",1,0.417112397961318,3,13,1
"1515",15,20,"Male","Virksomhed","i",1,0.4630362430471,3,14,1
"1516",15,20,"Male","Birthe","i",1,0.591229327023029,3,16,1
"1517",15,20,"Male","Familie","e",1,1.62953257997287,3,17,1
"1518",15,20,"Male","Forældre","e",1,0.823599296971224,3,18,1
"1519",15,20,"Male","Jens","e",1,0.726672670047265,3,19,1
"1520",15,20,"Male","Line","i",1,0.660909879021347,3,20,1
"1521",15,20,"Male","Familie","e",1,0.743643222027458,4,3,1
"1522",15,20,"Male","Jens","e",1,0.68441162398085,4,4,1
"1523",15,20,"Male","Camilla","i",1,0.540801886992995,4,5,1
"1524",15,20,"Male","Virksomhed","i",1,0.632982769981027,4,6,1
"1525",15,20,"Male","Hanne","i",1,0.569174958043732,4,7,1
"1526",15,20,"Male","Morten","e",1,0.549142964009661,4,8,1
"1527",15,20,"Male","Børn","e",1,0.669421270024031,4,9,1
"1528",15,20,"Male","Mikkel","e",1,0.761015764030162,4,11,1
"1529",15,20,"Male","Børn","e",1,0.651713568950072,4,12,1
"1530",15,20,"Male","Casper","e",1,0.663417275005486,4,13,1
"1531",15,20,"Male","Karriere","i",1,0.684577312960755,4,14,1
"1532",15,20,"Male","Hjem","e",1,0.596045671962202,4,15,1
"1533",15,20,"Male","Sebastian","e",1,0.634870868001599,4,16,1
"1534",15,20,"Male","Josefine","i",1,0.581914166978095,4,17,1
"1535",15,20,"Male","Camilla","i",1,0.493035760999192,4,18,1
"1536",15,20,"Male","Forældre","e",1,0.5597179979668,4,19,1
"1537",15,20,"Male","Bryllup","e",1,0.64465365302749,4,20,1
"1538",15,20,"Male","Handel","i",1,0.550031874969136,4,21,1
"1539",15,20,"Male","Casper","e",1,0.792846427008044,4,22,1
"1540",15,20,"Male","Rasmus","e",1,0.550194723997265,4,23,1
"1541",15,20,"Male","Josefine","i",1,0.55614214297384,4,24,1
"1542",15,20,"Male","Sebastian","e",1,0.618905937008094,4,25,1
"1543",15,20,"Male","Birthe","i",1,0.530432138999458,4,26,1
"1544",15,20,"Male","Jens","e",1,0.561093555006664,4,27,1
"1545",15,20,"Male","Ruth","i",1,0.555020027037244,4,28,1
"1546",15,20,"Male","Akademiker","i",1,0.552484936022665,4,29,1
"1547",15,20,"Male","Rasmus","e",1,0.546291395032313,4,30,1
"1548",15,20,"Male","Morten","e",1,0.50651709997328,4,31,1
"1549",15,20,"Male","Mikkel","e",1,0.536156899994239,4,32,1
"1550",15,20,"Male","Slægtninge","e",1,0.654368658026215,4,33,1
"1551",15,20,"Male","Ledelse","i",1,0.563838678004686,4,34,1
"1552",15,20,"Male","Ruth","i",1,0.569459068996366,4,35,1
"1553",15,20,"Male","Birthe","i",1,0.475123515992891,4,36,1
"1554",15,20,"Male","Kontor","i",1,0.629327199014369,4,38,1
"1555",15,20,"Male","Akademiker","i",1,0.58256348100258,4,39,1
"1556",15,20,"Male","Bryllup","e",1,0.639688903000206,4,40,1
"1557",15,20,"Male","Ruth","i",1,0.509992481034715,6,3,0
"1558",15,20,"Male","Hjem","i",1,0.655540822946932,6,4,0
"1559",15,20,"Male","Virksomhed","e",1,0.896956660959404,6,5,0
"1560",15,20,"Male","Ole","e",1,0.546394364966545,6,6,0
"1561",15,20,"Male","Karriere","e",1,0.753079329966567,6,7,0
"1562",15,20,"Male","Akademiker","e",1,0.494073843001388,6,8,0
"1563",15,20,"Male","Camilla","i",1,0.525385147018824,6,9,0
"1564",15,20,"Male","Slægtninge","i",1,0.866964250977617,6,10,0
"1565",15,20,"Male","Løn","e",1,0.655221788038034,6,11,0
"1566",15,20,"Male","Mette","i",1,0.713348252000287,6,12,0
"1567",15,20,"Male","Hanne","i",1,0.514033448998816,6,13,0
"1568",15,20,"Male","Virksomhed","e",1,0.560106201970484,6,14,0
"1569",15,20,"Male","Mikkel","e",1,0.608543798036408,6,15,0
"1570",15,20,"Male","Birthe","i",1,0.486835716990754,6,16,0
"1571",15,20,"Male","Familie","i",1,0.739589517994318,6,17,0
"1572",15,20,"Male","Forældre","i",1,0.541822151979432,6,18,0
"1573",15,20,"Male","Jens","e",1,0.638710565050133,6,19,0
"1574",15,20,"Male","Line","i",1,0.580834751017392,6,20,0
"1575",15,20,"Male","Familie","i",1,0.9398503130069,7,3,0
"1576",15,20,"Male","Jens","e",1,0.66260948299896,7,4,0
"1577",15,20,"Male","Camilla","i",1,0.5142575679929,7,5,0
"1578",15,20,"Male","Virksomhed","e",1,0.734631402010564,7,6,0
"1579",15,20,"Male","Hanne","i",1,0.464350883034058,7,7,0
"1580",15,20,"Male","Børn","i",1,1.26214799797162,7,9,0
"1581",15,20,"Male","Hjem","i",1,0.667303824971896,7,10,0
"1582",15,20,"Male","Mikkel","e",1,0.637870756036136,7,11,0
"1583",15,20,"Male","Børn","i",1,1.74548656999832,7,12,0
"1584",15,20,"Male","Casper","e",1,0.570331384020392,7,13,0
"1585",15,20,"Male","Hjem","i",1,0.821544986974914,7,15,0
"1586",15,20,"Male","Sebastian","e",1,0.806514314957894,7,16,0
"1587",15,20,"Male","Josefine","i",1,0.568937254021876,7,17,0
"1588",15,20,"Male","Camilla","i",1,0.591639443999156,7,18,0
"1589",15,20,"Male","Bryllup","i",1,0.977411815023515,7,20,0
"1590",15,20,"Male","Handel","e",1,0.58709991700016,7,21,0
"1591",15,20,"Male","Casper","e",1,0.852514957019594,7,22,0
"1592",15,20,"Male","Rasmus","e",1,0.552158007980324,7,23,0
"1593",15,20,"Male","Sebastian","e",1,0.682711476983968,7,25,0
"1594",15,20,"Male","Birthe","i",1,0.61478367698146,7,26,0
"1595",15,20,"Male","Jens","e",1,0.597661154984962,7,27,0
"1596",15,20,"Male","Ruth","i",1,0.4925109820324,7,28,0
"1597",15,20,"Male","Akademiker","e",1,0.91208491101861,7,29,0
"1598",15,20,"Male","Rasmus","e",1,0.582112250034697,7,30,0
"1599",15,20,"Male","Morten","e",1,0.524766934977379,7,31,0
"1600",15,20,"Male","Mikkel","e",1,0.488968960009515,7,32,0
"1601",15,20,"Male","Slægtninge","i",1,0.675257267954294,7,33,0
"1602",15,20,"Male","Ledelse","e",1,0.681208687019534,7,34,0
"1603",15,20,"Male","Ruth","i",1,0.529930455028079,7,35,0
"1604",15,20,"Male","Birthe","i",1,0.617037248972338,7,36,0
"1605",15,20,"Male","Slægtninge","i",1,1.44155473599676,7,37,0
"1606",15,20,"Male","Kontor","e",1,0.62648362503387,7,38,0
"1607",15,20,"Male","Akademiker","e",1,1.01642118004384,7,39,0
"1608",15,20,"Male","Bryllup","i",1,0.562808401009534,7,40,0
"1609",16,21,"Female","Familie","e",1,0.981852299999446,3,3,1
"1610",16,21,"Female","Børn","e",1,0.967692799997167,3,4,1
"1611",16,21,"Female","Line","i",1,0.874145799985854,3,5,1
"1612",16,21,"Female","Hjem","e",1,1.31192659999942,3,7,1
"1613",16,21,"Female","Mette","i",1,0.838900200003991,3,8,1
"1614",16,21,"Female","Kontor","i",1,0.659581400002935,3,9,1
"1615",16,21,"Female","Jens","e",1,0.838824299993576,3,10,1
"1616",16,21,"Female","Birthe","i",1,0.834836300011375,3,11,1
"1617",16,21,"Female","Ole","e",1,0.837308200003463,3,12,1
"1618",16,21,"Female","Karriere","i",1,0.731253899997682,3,13,1
"1619",16,21,"Female","Casper","e",1,1.32306970001082,3,14,1
"1620",16,21,"Female","Rasmus","e",1,0.583866999993916,3,15,1
"1621",16,21,"Female","Slægtninge","e",1,1.64662630000385,3,17,1
"1622",16,21,"Female","Løn","i",1,0.623568000009982,3,18,1
"1623",16,21,"Female","Handel","i",1,0.560030600012396,3,19,1
"1624",16,21,"Female","Forældre","e",1,0.647168399998918,3,20,1
"1625",16,21,"Female","Jens","e",1,0.591827099997317,4,3,1
"1626",16,21,"Female","Josefine","i",1,0.759410200000275,4,4,1
"1627",16,21,"Female","Sebastian","e",1,0.568353900001966,4,5,1
"1628",16,21,"Female","Bryllup","e",1,0.658741499995813,4,6,1
"1629",16,21,"Female","Camilla","i",1,0.545173399994383,4,7,1
"1630",16,21,"Female","Akademiker","i",1,0.615612999987206,4,8,1
"1631",16,21,"Female","Kontor","i",1,0.487272700003814,4,9,1
"1632",16,21,"Female","Akademiker","i",1,0.504479499999434,4,10,1
"1633",16,21,"Female","Rasmus","e",1,1.06073870000546,4,13,1
"1634",16,21,"Female","Casper","e",1,0.583914699993329,4,14,1
"1635",16,21,"Female","Ruth","i",1,0.745564900003956,4,15,1
"1636",16,21,"Female","Ledelse","i",1,0.926763900002697,4,16,1
"1637",16,21,"Female","Virksomhed","i",1,0.509680700008175,4,17,1
"1638",16,21,"Female","Ole","e",1,0.604863400003524,4,18,1
"1639",16,21,"Female","Line","i",1,1.24176449999504,4,20,1
"1640",16,21,"Female","Løn","i",1,0.910316900000907,4,21,1
"1641",16,21,"Female","Mikkel","e",1,0.802534499991452,4,22,1
"1642",16,21,"Female","Sebastian","e",1,0.6628439000051,4,23,1
"1643",16,21,"Female","Forældre","e",1,0.687644700010424,4,24,1
"1644",16,21,"Female","Kontor","i",1,0.735396999996738,4,25,1
"1645",16,21,"Female","Karriere","i",1,1.28713920000882,4,27,1
"1646",16,21,"Female","Morten","e",1,0.62413729999389,4,28,1
"1647",16,21,"Female","Bryllup","e",1,0.714485999997123,4,29,1
"1648",16,21,"Female","Mette","i",1,0.604838900006143,4,30,1
"1649",16,21,"Female","Birthe","i",1,0.653204999995069,4,31,1
"1650",16,21,"Female","Jens","e",1,0.599101100000553,4,32,1
"1651",16,21,"Female","Børn","e",1,0.966184200005955,4,33,1
"1652",16,21,"Female","Mikkel","e",1,0.626844800004619,4,34,1
"1653",16,21,"Female","Camilla","i",1,0.549357500000042,4,35,1
"1654",16,21,"Female","Ægteskab","e",1,0.730653599996003,4,36,1
"1655",16,21,"Female","Ruth","i",1,0.626555499999085,4,37,1
"1656",16,21,"Female","Ole","e",1,0.61232289999316,4,38,1
"1657",16,21,"Female","Familie","e",1,0.627649599991855,4,39,1
"1658",16,21,"Female","Hanne","i",1,0.615932400003658,4,40,1
"1659",16,21,"Female","Familie","i",1,0.70111850000103,6,3,0
"1660",16,21,"Female","Børn","i",1,0.621639999997569,6,4,0
"1661",16,21,"Female","Line","i",1,0.543965100005153,6,5,0
"1662",16,21,"Female","Rasmus","e",1,0.596351500003948,6,6,0
"1663",16,21,"Female","Hjem","i",1,0.813294199993834,6,7,0
"1664",16,21,"Female","Mette","i",1,0.812807499998598,6,8,0
"1665",16,21,"Female","Kontor","e",1,0.613815999997314,6,9,0
"1666",16,21,"Female","Jens","e",1,0.642047300003469,6,10,0
"1667",16,21,"Female","Birthe","i",1,0.521844100003364,6,11,0
"1668",16,21,"Female","Ole","e",1,0.49785180001345,6,12,0
"1669",16,21,"Female","Karriere","e",1,0.784615900003701,6,13,0
"1670",16,21,"Female","Casper","e",1,0.612615599995479,6,14,0
"1671",16,21,"Female","Rasmus","e",1,0.461042499999166,6,15,0
"1672",16,21,"Female","Ledelse","e",1,0.57827470000484,6,16,0
"1673",16,21,"Female","Slægtninge","i",1,0.626262299992959,6,17,0
"1674",16,21,"Female","Løn","e",1,0.652524199991603,6,18,0
"1675",16,21,"Female","Handel","e",1,0.483433400004287,6,19,0
"1676",16,21,"Female","Forældre","i",1,0.505281899997499,6,20,0
"1677",16,21,"Female","Jens","e",1,0.580555799999274,7,3,0
"1678",16,21,"Female","Sebastian","e",1,0.585065699997358,7,5,0
"1679",16,21,"Female","Bryllup","i",1,0.858028700007708,7,6,0
"1680",16,21,"Female","Camilla","i",1,0.653074899993953,7,7,0
"1681",16,21,"Female","Akademiker","e",1,1.21861470000295,7,8,0
"1682",16,21,"Female","Kontor","e",1,0.587828100004117,7,9,0
"1683",16,21,"Female","Akademiker","e",1,0.518491000009817,7,10,0
"1684",16,21,"Female","Hjem","i",1,0.51154310000129,7,11,0
