"","ID","age","gender","word","response","correct","rt","block","trial","condition","rt_log"
"1",1,23,"Male","Jens","e",1,2.15177180000046,3,3,1,0.766291595784826
"2",1,23,"Male","Mette","i",1,0.798229999999421,3,4,1,-0.225358502509239
"3",1,23,"Male","Morten","e",1,1.59577540000009,3,5,1,0.467359762307685
"4",1,23,"Male","Ruth","i",1,0.937023399999816,3,6,1,-0.0650470237366355
"5",1,23,"Male","Ægteskab","e",1,2.18620180000016,3,7,1,0.782165700223779
"6",1,23,"Male","Hanne","i",1,1.16543180000008,3,8,1,0.153091662123119
"7",1,23,"Male","Line","i",1,2.1211787000002,3,9,1,0.751971924744565
"8",1,23,"Male","Forældre","e",1,1.3795983,3,10,1,0.321792369838559
"9",1,23,"Male","Karriere","i",1,0.823412900000221,3,11,1,-0.194297503021154
"10",1,23,"Male","Akademiker","i",1,0.871347600000263,3,12,1,-0.137714300225681
"11",1,23,"Male","Børn","e",1,2.16477810000015,3,13,1,0.772317861975302
"12",1,23,"Male","Hanne","i",1,1.02751650000027,3,14,1,0.0271447256537456
"13",1,23,"Male","Casper","e",1,0.886816100000033,3,15,1,-0.12011764624011
"14",1,23,"Male","Ægteskab","e",1,1.07605890000013,3,16,1,0.0733052000185025
"15",1,23,"Male","Josefine","i",1,0.872969099999864,3,17,1,-0.135855118958119
"16",1,23,"Male","Familie","e",1,2.44843330000003,3,18,1,0.895448350621139
"17",1,23,"Male","Ledelse","i",1,0.641340299999683,3,19,1,-0.444195073698226
"18",1,23,"Male","Kontor","i",1,1.08864070000072,3,20,1,0.0849298537898786
"19",1,23,"Male","Ægteskab","e",1,1.1939268999995,4,3,1,0.177247790315228
"20",1,23,"Male","Karriere","i",1,1.23532479999994,4,4,1,0.211333931453939
"21",1,23,"Male","Børn","e",1,0.926902900000641,4,5,1,-0.0759064653959541
"22",1,23,"Male","Sebastian","e",1,1.13703149999947,4,6,1,0.128420918869655
"23",1,23,"Male","Mette","i",1,0.703978100000313,4,7,1,-0.351008031262058
"24",1,23,"Male","Kontor","i",1,1.02134000000024,4,8,1,0.021115490604307
"25",1,23,"Male","Line","i",1,1.28198390000034,4,9,1,0.248408799917546
"26",1,23,"Male","Morten","e",1,0.782884499999454,4,10,1,-0.244770103451183
"27",1,23,"Male","Hjem","e",1,1.17469079999955,4,12,1,0.161004964029815
"28",1,23,"Male","Line","i",1,0.995134699999653,4,13,1,-0.00487717410209426
"29",1,23,"Male","Forældre","e",1,1.00519009999971,4,14,1,0.00517667785219953
"30",1,23,"Male","Mikkel","e",1,0.914326699999947,4,15,1,-0.0895673315694956
"31",1,23,"Male","Casper","e",1,0.856951300000219,4,16,1,-0.154374188136458
"32",1,23,"Male","Ledelse","i",1,0.758162900000571,4,17,1,-0.276857008776639
"33",1,23,"Male","Ole","e",1,1.03165239999998,4,18,1,0.0311617886167584
"34",1,23,"Male","Hjem","e",1,1.35734519999914,4,19,1,0.305530733173878
"35",1,23,"Male","Handel","i",1,0.798857200000384,4,20,1,-0.224573072592568
"36",1,23,"Male","Josefine","i",1,1.06315300000006,4,21,1,0.0612390212697776
"37",1,23,"Male","Rasmus","e",1,0.787828999999874,4,22,1,-0.238474217749568
"38",1,23,"Male","Casper","e",1,0.531576999999743,4,23,1,-0.631907218692757
"39",1,23,"Male","Virksomhed","i",1,0.638974199999211,4,24,1,-0.447891201007807
"40",1,23,"Male","Ole","e",1,1.01726830000007,4,25,1,0.0171208974159712
"41",1,23,"Male","Hanne","i",1,0.833575399999972,4,26,1,-0.182031118975135
"42",1,23,"Male","Karriere","i",1,1.41204920000018,4,27,1,0.34504198265677
"43",1,23,"Male","Ledelse","i",1,0.810736699999325,4,28,1,-0.209811938493775
"44",1,23,"Male","Akademiker","i",1,1.52415000000019,4,29,1,0.421436877617988
"45",1,23,"Male","Sebastian","e",1,0.988234600000396,4,31,1,-0.0118351600278009
"46",1,23,"Male","Løn","i",1,0.689276699999937,4,32,1,-0.372112492070177
"47",1,23,"Male","Josefine","i",1,1.2675164000002,4,33,1,0.237059395255672
"48",1,23,"Male","Kontor","i",1,1.63440850000006,4,34,1,0.491280965193057
"49",1,23,"Male","Jens","e",1,0.833254199999828,4,35,1,-0.182416521303147
"50",1,23,"Male","Ægteskab","e",1,0.958921599999485,4,37,1,-0.0419459592659161
"51",1,23,"Male","Birthe","i",1,0.928875600000538,4,38,1,-0.0737804565614608
"52",1,23,"Male","Forældre","e",1,1.92951459999949,4,39,1,0.657268468693777
"53",1,23,"Male","Jens","e",1,1.28535210000064,6,3,0,0.251032688596503
"54",1,23,"Male","Mette","i",1,0.908279100000073,6,4,0,-0.0962035687573402
"55",1,23,"Male","Morten","e",1,1.15154379999967,6,5,0,0.141103476897513
"56",1,23,"Male","Ruth","i",1,0.905371699999705,6,6,0,-0.0994097013721381
"57",1,23,"Male","Ægteskab","i",1,1.53856290000022,6,7,0,0.430848798922273
"58",1,23,"Male","Hanne","i",1,1.17749099999946,6,8,0,0.163385903566668
"59",1,23,"Male","Line","i",1,0.760459099999935,6,9,0,-0.27383294913672
"60",1,23,"Male","Forældre","i",1,1.81034590000036,6,10,0,0.593517931992078
"61",1,23,"Male","Karriere","e",1,1.53464869999971,6,11,0,0.428301494911685
"62",1,23,"Male","Akademiker","e",1,0.982914000000164,6,12,0,-0.0172336499458639
"63",1,23,"Male","Børn","i",1,1.14898300000004,6,13,0,0.138877203282877
"64",1,23,"Male","Hanne","i",1,0.926900100000239,6,14,0,-0.0759094862135946
"65",1,23,"Male","Casper","e",1,0.970109099999718,6,15,0,-0.030346739582947
"66",1,23,"Male","Ægteskab","i",1,1.15089490000082,6,16,0,0.14053981366858
"67",1,23,"Male","Josefine","i",1,0.948644500000228,6,17,0,-0.0527211554011001
"68",1,23,"Male","Familie","i",1,0.936893100000816,6,18,0,-0.0651860907646597
"69",1,23,"Male","Ledelse","e",1,0.853909500000555,6,19,0,-0.157930062705291
"70",1,23,"Male","Ægteskab","i",1,1.48970350000036,7,3,0,0.398577106867227
"71",1,23,"Male","Karriere","e",1,1.29482170000028,7,4,0,0.258373002274808
"72",1,23,"Male","Børn","i",1,2.29768390000027,7,5,0,0.83190161557008
"73",1,23,"Male","Sebastian","e",1,1.25990679999995,7,6,0,0.231037749973595
"74",1,23,"Male","Mette","i",1,0.985533699999905,7,7,0,-0.0145719571344473
"75",1,23,"Male","Kontor","e",1,1.4242592999999,7,8,0,0.353651889109483
"76",1,23,"Male","Line","i",1,0.843603600000279,7,9,0,-0.170072562960973
"77",1,23,"Male","Morten","e",1,0.783903800000189,7,10,0,-0.243468970241882
"78",1,23,"Male","Børn","i",1,1.04647979999936,7,11,0,0.0454319602803183
"79",1,23,"Male","Hjem","i",1,1.67634160000034,7,12,0,0.516613799907655
"80",1,23,"Male","Line","i",1,1.51614270000027,7,13,0,0.416169412078076
"81",1,23,"Male","Forældre","i",1,1.06668020000052,7,14,0,0.0645512085575722
"82",1,23,"Male","Mikkel","e",1,0.703509799999665,7,15,0,-0.351673472176937
"83",1,23,"Male","Casper","e",1,0.481195299999854,7,16,0,-0.731482062178162
"84",1,23,"Male","Ledelse","e",1,0.60868230000051,7,17,0,-0.496458822267931
"85",1,23,"Male","Ole","e",1,0.538431299999502,7,18,0,-0.619095367126877
"86",1,23,"Male","Hjem","i",1,0.686413499999617,7,19,0,-0.376275063170184
"87",1,23,"Male","Handel","e",1,0.67368820000047,7,20,0,-0.394987886382706
"88",1,23,"Male","Josefine","i",1,0.972389399999884,7,21,0,-0.0279989374635453
"89",1,23,"Male","Rasmus","e",1,1.01919990000079,7,22,0,0.0190179077203581
"90",1,23,"Male","Casper","e",1,0.545292099999642,7,23,0,-0.606433664593829
"91",1,23,"Male","Virksomhed","e",1,0.794177800000398,7,24,0,-0.230447913331929
"92",1,23,"Male","Ole","e",1,0.74986650000028,7,25,0,-0.287860088295287
"93",1,23,"Male","Hanne","i",1,0.729931599999873,7,26,0,-0.314804447860003
"94",1,23,"Male","Karriere","e",1,0.87301590000061,7,27,0,-0.135801510249273
"95",1,23,"Male","Ledelse","e",1,1.01551999999992,7,28,0,0.0154007965759481
"96",1,23,"Male","Akademiker","e",1,0.586314399999537,7,29,0,-0.53389911450932
"97",1,23,"Male","Familie","i",1,0.602494199999455,7,30,0,-0.506677240220583
"98",1,23,"Male","Sebastian","e",1,0.6245657999998,7,31,0,-0.470698590675818
"99",1,23,"Male","Josefine","i",1,0.678725900000245,7,33,0,-0.387537914809672
"100",1,23,"Male","Kontor","e",1,0.96306100000038,7,34,0,-0.0376385254721963
"101",1,23,"Male","Jens","e",1,1.34424349999972,7,35,0,0.295831401285672
"102",1,23,"Male","Bryllup","i",1,1.05310019999979,7,36,0,0.0517383853196844
"103",1,23,"Male","Ægteskab","i",1,0.874281999999766,7,37,0,-0.134352300906383
"104",1,23,"Male","Birthe","i",1,0.981970699999692,7,38,0,-0.0181938081403283
"105",1,23,"Male","Forældre","i",1,1.67402029999994,7,39,0,0.515228098636491
"106",1,23,"Male","Børn","i",1,1.42896289999953,7,40,0,0.356948936399043
"107",2,25,"Female","Akademiker","i",1,0.822788679011865,3,3,1,-0.195055880398789
"108",2,25,"Female","Mette","i",1,0.584798658004729,3,4,1,-0.536487665342756
"109",2,25,"Female","Birthe","i",1,0.523819716996513,3,5,1,-0.646607705393774
"110",2,25,"Female","Casper","e",1,0.701477461989271,3,6,1,-0.354566508267549
"111",2,25,"Female","Forældre","e",1,0.596460185013711,3,7,1,-0.516742787343792
"112",2,25,"Female","Josefine","i",1,0.560381849005353,3,8,1,-0.57913685439902
"113",2,25,"Female","Birthe","i",1,0.66681335499743,3,9,1,-0.405245099815619
"114",2,25,"Female","Mette","i",1,0.573178842023481,3,10,1,-0.556557495740997
"115",2,25,"Female","Morten","e",1,0.623811891011428,3,11,1,-0.471906412772373
"116",2,25,"Female","Handel","i",1,1.16741979101789,3,12,1,0.154796006717256
"117",2,25,"Female","Virksomhed","i",1,0.455124482978135,3,13,1,-0.787184308486887
"118",2,25,"Female","Hanne","i",1,0.879862372006755,3,14,1,-0.127989779187797
"119",2,25,"Female","Ole","e",1,0.607470882998314,3,15,1,-0.498451034136958
"120",2,25,"Female","Ledelse","i",1,0.667654775985284,3,16,1,-0.403984041451128
"121",2,25,"Female","Ægteskab","e",1,0.584070559008978,3,17,1,-0.537733483231232
"122",2,25,"Female","Akademiker","i",1,0.949764090008102,3,18,1,-0.051541651532894
"123",2,25,"Female","Hanne","i",1,0.688798157003475,3,19,1,-0.372807001534978
"124",2,25,"Female","Sebastian","e",1,0.66116674998193,3,20,1,-0.413749201683371
"125",2,25,"Female","Josefine","i",1,0.553249539982062,4,3,1,-0.591946131534267
"126",2,25,"Female","Løn","i",1,0.610470529994927,4,4,1,-0.493525258513085
"127",2,25,"Female","Line","i",1,0.51653658298892,4,5,1,-0.660609164297721
"128",2,25,"Female","Camilla","i",1,0.442423786997097,4,6,1,-0.815487062142843
"129",2,25,"Female","Mikkel","e",1,0.518597988993861,4,7,1,-0.656626283644712
"130",2,25,"Female","Slægtninge","e",1,0.670830623013899,4,8,1,-0.399238598593419
"131",2,25,"Female","Hjem","e",1,0.479712934989948,4,9,1,-0.734567406088969
"132",2,25,"Female","Mette","i",1,0.666524606989697,4,11,1,-0.405678220330416
"133",2,25,"Female","Kontor","i",1,1.52708465899923,4,12,1,0.423360466087517
"134",2,25,"Female","Handel","i",1,0.549701462005032,4,13,1,-0.598379944477378
"135",2,25,"Female","Akademiker","i",1,0.523553307022667,4,14,1,-0.64711642573215
"136",2,25,"Female","Bryllup","e",1,1.03437775099883,4,15,1,0.0338000391556608
"137",2,25,"Female","Akademiker","i",1,0.522908407001523,4,16,1,-0.648348960270474
"138",2,25,"Female","Ægteskab","e",1,0.655340215016622,4,17,1,-0.422600765955612
"139",2,25,"Female","Mikkel","e",1,0.588334234984359,4,18,1,-0.530460065732706
"140",2,25,"Female","Ledelse","i",1,0.713478960009525,4,19,1,-0.33760233092397
"141",2,25,"Female","Birthe","i",1,0.573974575992906,4,20,1,-0.555170176338806
"142",2,25,"Female","Familie","e",1,0.786728800012497,4,21,1,-0.239871689682855
"143",2,25,"Female","Casper","e",1,0.692106132977642,4,22,1,-0.368015963769677
"144",2,25,"Female","Hjem","e",1,0.536248207004974,4,23,1,-0.623158152325969
"145",2,25,"Female","Josefine","i",1,0.53613799798768,4,24,1,-0.623363692115959
"146",2,25,"Female","Jens","e",1,0.722577649983577,4,25,1,-0.324930390744756
"147",2,25,"Female","Forældre","e",1,1.02961498001241,4,26,1,0.0291849265455428
"148",2,25,"Female","Camilla","i",1,0.568802757014055,4,27,1,-0.56422155343373
"149",2,25,"Female","Slægtninge","e",1,1.01261018399964,4,28,1,0.0125313377810365
"150",2,25,"Female","Hanne","i",1,0.492084308003541,4,29,1,-0.709105219439113
"151",2,25,"Female","Line","i",1,0.652498159994138,4,30,1,-0.42694695972162
"152",2,25,"Female","Virksomhed","i",1,0.847641085012583,4,31,1,-0.165297981591208
"153",2,25,"Female","Casper","e",1,0.691019564983435,4,32,1,-0.369587141601647
"154",2,25,"Female","Handel","i",1,0.739158693992067,4,33,1,-0.302242639555707
"155",2,25,"Female","Karriere","i",1,0.73284130601678,4,34,1,-0.31082609982982
"156",2,25,"Female","Ruth","i",1,0.66302934999112,4,35,1,-0.410936021312866
"157",2,25,"Female","Mette","i",1,0.638910158013459,4,36,1,-0.447991432277411
"158",2,25,"Female","Birthe","i",1,0.723270679998677,4,37,1,-0.323971742380604
"159",2,25,"Female","Jens","e",1,0.585402425000211,4,38,1,-0.535455762265881
"160",2,25,"Female","Sebastian","e",1,0.466832631005673,4,39,1,-0.761784477401756
"161",2,25,"Female","Forældre","e",1,0.572191540006315,4,40,1,-0.558281483504586
"162",2,25,"Female","Akademiker","e",1,0.506323281995719,6,3,0,-0.680579916477873
"163",2,25,"Female","Mette","i",1,0.471113586012507,6,4,0,-0.752656054777717
"164",2,25,"Female","Birthe","i",1,0.413895844016224,6,5,0,-0.882140921311387
"165",2,25,"Female","Casper","e",1,0.566666591010289,6,6,0,-0.567984171117202
"166",2,25,"Female","Forældre","i",1,1.07570807501907,6,7,0,0.0729791191851681
"167",2,25,"Female","Josefine","i",1,0.672529854986351,6,8,0,-0.39670877445978
"168",2,25,"Female","Birthe","i",1,0.407817686995259,6,9,0,-0.896935050043078
"169",2,25,"Female","Mette","i",1,0.488976002990967,6,10,0,-0.71544186434952
"170",2,25,"Female","Morten","e",1,0.711210962006589,6,11,0,-0.340786181506135
"171",2,25,"Female","Handel","e",1,0.526926421996905,6,12,0,-0.64069435689226
"172",2,25,"Female","Virksomhed","e",1,0.466425352991791,6,13,0,-0.762657286521463
"173",2,25,"Female","Hanne","i",1,0.456751000019722,6,14,0,-0.78361689430174
"174",2,25,"Female","Ledelse","e",1,1.07607493200339,6,16,0,0.0733200987232402
"175",2,25,"Female","Ægteskab","i",1,0.702622468990739,6,17,0,-0.352935559885579
"176",2,25,"Female","Akademiker","e",1,0.625110922002932,6,18,0,-0.469826169787905
"177",2,25,"Female","Hanne","i",1,0.514217331015971,6,19,0,-0.665109279903153
"178",2,25,"Female","Sebastian","e",1,0.536236169020412,6,20,0,-0.623180601109057
"179",2,25,"Female","Josefine","i",1,0.479899099998875,7,3,0,-0.734179405512747
"180",2,25,"Female","Løn","e",1,0.591854036989389,7,4,0,-0.524495233638379
"181",2,25,"Female","Line","i",1,0.544783983001253,7,5,0,-0.607365924356453
"182",2,25,"Female","Camilla","i",1,0.428329133981606,7,6,0,-0.847863374302979
"183",2,25,"Female","Mikkel","e",1,0.636969622981269,7,7,0,-0.451033312174586
"184",2,25,"Female","Slægtninge","i",1,0.841254761995515,7,8,0,-0.172860737420481
"185",2,25,"Female","Hjem","i",1,0.560442607995356,7,9,0,-0.579028436011675
"186",2,25,"Female","Morten","e",1,0.563816695997957,7,10,0,-0.573026087406151
"187",2,25,"Female","Mette","i",1,0.55442025497905,7,11,0,-0.589832296818833
"188",2,25,"Female","Kontor","e",1,0.722456792980665,7,12,0,-0.325097662886652
"189",2,25,"Female","Handel","e",1,0.523871912009781,7,13,0,-0.646508067271514
"190",2,25,"Female","Akademiker","e",1,0.527930888987612,7,14,0,-0.638789895911907
"191",2,25,"Female","Bryllup","i",1,0.616908322001109,7,15,0,-0.483034852824937
"192",2,25,"Female","Akademiker","e",1,0.53247243797523,7,16,0,-0.630224142409065
"193",2,25,"Female","Ægteskab","i",1,0.523277041007532,7,17,0,-0.647644240047178
"194",2,25,"Female","Mikkel","e",1,0.917354879988125,7,18,0,-0.0862608805137122
"195",2,25,"Female","Ledelse","e",1,0.567913164006313,7,19,0,-0.565786752218941
"196",2,25,"Female","Birthe","i",1,0.426661545992829,7,20,0,-0.851764212387911
"197",2,25,"Female","Familie","i",1,0.512051887984853,7,21,0,-0.669329315357141
"198",2,25,"Female","Casper","e",1,0.460840550978901,7,22,0,-0.774703172216044
"199",2,25,"Female","Hjem","i",1,0.797480192995863,7,23,0,-0.226298281000389
"200",2,25,"Female","Josefine","i",1,0.546838656999171,7,24,0,-0.603601479851486
"201",2,25,"Female","Jens","e",1,0.561620255000889,7,25,0,-0.576929360323895
"202",2,25,"Female","Forældre","i",1,1.6265664639941,7,26,0,0.486471329295958
"203",2,25,"Female","Camilla","i",1,0.755226328008575,7,27,0,-0.280737802459031
"204",2,25,"Female","Slægtninge","i",1,0.659184027987067,7,28,0,-0.416752530068963
"205",2,25,"Female","Hanne","i",1,0.924775665014749,7,29,0,-0.0782040951918668
"206",2,25,"Female","Line","i",1,0.590459005004959,7,30,0,-0.526855069963059
"207",2,25,"Female","Virksomhed","e",1,0.552436547994148,7,31,0,-0.593416697444912
"208",2,25,"Female","Casper","e",1,0.426989535015309,7,32,0,-0.850995774214711
"209",2,25,"Female","Handel","e",1,0.596573780989274,7,33,0,-0.516552355253603
"210",2,25,"Female","Karriere","e",1,0.394296832993859,7,34,0,-0.930651270101749
"211",2,25,"Female","Ruth","i",1,0.606912754010409,7,35,0,-0.499370231349756
"212",2,25,"Female","Mette","i",1,0.368577932997141,7,36,0,-0.998103102610844
"213",2,25,"Female","Birthe","i",1,0.564375724003185,7,37,0,-0.572035071971073
"214",2,25,"Female","Jens","e",1,0.581524795998121,7,38,0,-0.54210166649123
"215",2,25,"Female","Sebastian","e",1,0.418212212010985,7,39,0,-0.871766291048615
"216",2,25,"Female","Forældre","i",1,0.672209351003403,7,40,0,-0.397185452744446
"217",3,24,"Male","Casper","e",1,0.929250044398941,3,3,1,-0.0733774220254481
"218",3,24,"Male","Akademiker","i",1,1.20850450664875,3,4,1,0.189383650280431
"219",3,24,"Male","Rasmus","e",1,0.64746892551193,3,5,1,-0.434684478047439
"220",3,24,"Male","Camilla","i",1,0.677508115011733,3,6,1,-0.389333748422919
"221",3,24,"Male","Virksomhed","i",1,1.27085964338039,3,7,1,0.239693556038965
"222",3,24,"Male","Ledelse","i",1,0.571393891557818,3,8,1,-0.55967647955094
"223",3,24,"Male","Ægteskab","e",1,0.594245363259688,3,9,1,-0.520462975448441
"224",3,24,"Male","Ole","e",1,0.731258696236182,3,10,1,-0.312987988217988
"225",3,24,"Male","Mette","i",1,0.536777089262614,3,11,1,-0.622172374446717
"226",3,24,"Male","Virksomhed","i",1,0.594110150093911,3,12,1,-0.520690538942431
"227",3,24,"Male","Hanne","i",1,0.60691880871309,3,13,1,-0.499360255167118
"228",3,24,"Male","Kontor","i",1,0.583671514992602,3,14,1,-0.538416928729674
"229",3,24,"Male","Camilla","i",1,0.598160297668073,3,15,1,-0.513896504651051
"230",3,24,"Male","Kontor","i",1,0.533630147809163,3,16,1,-0.628052287083992
"231",3,24,"Male","Ægteskab","e",1,1.28105284203775,3,18,1,0.247682272678765
"232",3,24,"Male","Hanne","i",1,1.67175151477568,3,19,1,0.513871888053337
"233",3,24,"Male","Sebastian","e",1,0.602990933111869,3,20,1,-0.505853118666723
"234",3,24,"Male","Josefine","i",1,0.454674136271933,4,3,1,-0.788174300631204
"235",3,24,"Male","Løn","i",1,0.77573981237947,4,4,1,-0.253938108347718
"236",3,24,"Male","Ledelse","i",1,0.54210350633366,4,5,1,-0.612298324679835
"237",3,24,"Male","Karriere","i",1,0.61936466768384,4,6,1,-0.479061055879466
"238",3,24,"Male","Rasmus","e",1,0.734187422407558,4,7,1,-0.308990939082814
"239",3,24,"Male","Camilla","i",1,0.66638895162032,4,8,1,-0.405881767468141
"240",3,24,"Male","Casper","e",1,0.731116343114991,4,9,1,-0.31318267578829
"241",3,24,"Male","Handel","i",1,0.593504591437522,4,10,1,-0.521710328757583
"242",3,24,"Male","Ledelse","i",1,0.733571153803496,4,11,1,-0.309830680236796
"243",3,24,"Male","Ægteskab","e",1,0.57159247196978,4,12,1,-0.559329003115006
"244",3,24,"Male","Mikkel","e",1,0.494739181391196,4,13,1,-0.703724561557753
"245",3,24,"Male","Jens","e",1,0.543457423016662,4,14,1,-0.609803914005296
"246",3,24,"Male","Akademiker","i",1,0.637871468061348,4,15,1,-0.449618476652173
"247",3,24,"Male","Line","i",1,0.762182349484647,4,16,1,-0.271569448138449
"248",3,24,"Male","Kontor","i",1,0.937307053507539,4,17,1,-0.0647443519112305
"249",3,24,"Male","Sebastian","e",1,0.616515819943743,4,18,1,-0.483671295808769
"250",3,24,"Male","Familie","e",1,0.887989946902962,4,19,1,-0.118794857109273
"251",3,24,"Male","Birthe","i",1,1.14973051077686,4,21,1,0.139527576458711
"252",3,24,"Male","Kontor","i",1,1.32168908469612,4,22,1,0.278910528213905
"253",3,24,"Male","Bryllup","e",1,0.66574813934858,4,23,1,-0.406843849112009
"254",3,24,"Male","Jens","e",1,0.530901340796845,4,24,1,-0.633179073878946
"255",3,24,"Male","Løn","i",1,0.825675865053199,4,25,1,-0.19155299766598
"256",3,24,"Male","Josefine","i",1,0.81790757845738,4,26,1,-0.201005933533579
"257",3,24,"Male","Hjem","e",1,0.858698669209844,4,27,1,-0.152337211077994
"258",3,24,"Male","Slægtninge","e",1,0.598514618643094,4,28,1,-0.513304328813578
"259",3,24,"Male","Karriere","i",1,0.666032399400137,4,29,1,-0.406416961877057
"260",3,24,"Male","Morten","e",1,1.52264575133449,4,30,1,0.42044944760253
"261",3,24,"Male","Børn","e",1,0.805934296222404,4,31,1,-0.215753058132796
"262",3,24,"Male","Mette","i",1,0.66958141035866,4,32,1,-0.401102522500107
"263",3,24,"Male","Familie","e",1,0.94511951864115,4,33,1,-0.0564438847331122
"264",3,24,"Male","Line","i",1,0.903542138752528,4,34,1,-0.101432530576978
"265",3,24,"Male","Bryllup","e",1,1.19963130983524,4,35,1,0.182014267781555
"266",3,24,"Male","Forældre","e",1,2.21792524986085,4,36,1,0.796572186764617
"267",3,24,"Male","Virksomhed","i",1,0.817063277063426,4,37,1,-0.202038736615241
"268",3,24,"Male","Hanne","i",1,1.06811575317988,4,38,1,0.0658961177922064
"269",3,24,"Male","Birthe","i",1,0.570104680868099,4,39,1,-0.56193528436947
"270",3,24,"Male","Ægteskab","e",1,0.648056187987095,4,40,1,-0.433777876532317
"271",3,24,"Male","Casper","e",1,0.520048141217558,6,3,0,-0.653833892427326
"272",3,24,"Male","Akademiker","e",1,0.537183175008977,6,4,0,-0.621416134613223
"273",3,24,"Male","Rasmus","e",1,0.480501190148061,6,5,0,-0.732925573679829
"274",3,24,"Male","Camilla","i",1,0.555259792250581,6,6,0,-0.588319180612399
"275",3,24,"Male","Virksomhed","e",1,0.524418694956694,6,7,0,-0.645464877543656
"276",3,24,"Male","Ledelse","e",1,0.627224881376605,6,8,0,-0.466450140170605
"277",3,24,"Male","Ole","e",1,1.18801814981271,6,10,0,0.172286498443874
"278",3,24,"Male","Mette","i",1,0.605087406613166,6,11,0,-0.502382357645852
"279",3,24,"Male","Virksomhed","e",1,0.856214406143408,6,12,0,-0.155234459737289
"280",3,24,"Male","Hanne","i",1,0.630379409063607,6,13,0,-0.461433404259349
"281",3,24,"Male","Kontor","e",1,0.652844876138261,6,14,0,-0.426415733610661
"282",3,24,"Male","Camilla","i",1,0.628921070310753,6,15,0,-0.463749514558142
"283",3,24,"Male","Kontor","e",1,0.651635097601684,6,16,0,-0.428270539982187
"284",3,24,"Male","Morten","e",1,0.686970359296538,6,17,0,-0.375464132819331
"285",3,24,"Male","Ægteskab","i",1,0.947914816613775,6,18,0,-0.0534906366570405
"286",3,24,"Male","Hanne","i",1,0.607424407819053,6,19,0,-0.498527543083259
"287",3,24,"Male","Sebastian","e",1,0.912829453794984,6,20,0,-0.0912062134318677
"288",3,24,"Male","Josefine","i",1,0.99635504570324,7,3,0,-0.00365161332884263
"289",3,24,"Male","Løn","e",1,0.554922874929616,7,4,0,-0.588926138982888
"290",3,24,"Male","Ledelse","e",1,0.505558912322158,7,5,0,-0.682090704637289
"291",3,24,"Male","Karriere","e",1,1.05286522503593,7,6,0,0.051515233541368
"292",3,24,"Male","Rasmus","e",1,1.01577843961422,7,7,0,0.0156552541294555
"293",3,24,"Male","Camilla","i",1,0.565887190256035,7,8,0,-0.569360531145637
"294",3,24,"Male","Casper","e",1,0.574500224465737,7,9,0,-0.554254790978456
"295",3,24,"Male","Handel","e",1,0.768830999586498,7,10,0,-0.262884100096174
"296",3,24,"Male","Ledelse","e",1,0.71487960673403,7,11,0,-0.33564113265617
"297",3,24,"Male","Ægteskab","i",1,0.657979406561935,7,12,0,-0.418581645164917
"298",3,24,"Male","Mikkel","e",1,0.657330561836716,7,13,0,-0.419568248769299
"299",3,24,"Male","Jens","e",1,0.54714253966813,7,14,0,-0.603045926103943
"300",3,24,"Male","Akademiker","e",1,0.703722958482103,7,15,0,-0.351370525158707
"301",3,24,"Male","Line","i",1,0.556181294523412,7,16,0,-0.586660968593879
"302",3,24,"Male","Kontor","e",1,1.00337943670456,7,17,0,0.00337373924087976
"303",3,24,"Male","Sebastian","e",1,0.490047329076333,7,18,0,-0.713253302590274
"304",3,24,"Male","Familie","i",1,0.65530236432096,7,19,0,-0.422658524945392
"305",3,24,"Male","Handel","e",1,0.827352419059025,7,20,0,-0.189524533184383
"306",3,24,"Male","Birthe","i",1,0.719035068847006,7,21,0,-0.329845147976248
"307",3,24,"Male","Kontor","e",1,0.774722366768401,7,22,0,-0.255250550238657
"308",3,24,"Male","Bryllup","i",1,0.659410524152918,7,23,0,-0.416408988276361
"309",3,24,"Male","Jens","e",1,0.624232787988149,7,24,0,-0.471231922508107
"310",3,24,"Male","Løn","e",1,0.965386767667951,7,25,0,-0.0352264624293873
"311",3,24,"Male","Josefine","i",1,0.569487519795075,7,26,0,-0.563018410654469
"312",3,24,"Male","Slægtninge","i",1,1.12342909519793,7,28,0,0.116385700013444
"313",3,24,"Male","Karriere","e",1,0.780748054588912,7,29,0,-0.247502774542947
"314",3,24,"Male","Morten","e",1,1.14047175561427,7,30,0,0.1314419975205
"315",3,24,"Male","Børn","i",1,0.840196777542587,7,31,0,-0.174119155599857
"316",3,24,"Male","Mette","i",1,0.679092741949717,7,32,0,-0.386997574668414
"317",3,24,"Male","Familie","i",1,0.578615524253109,7,33,0,-0.547117056082602
"318",3,24,"Male","Line","i",1,0.537641918053851,7,34,0,-0.620562520242494
"319",3,24,"Male","Bryllup","i",1,0.629392754548462,7,35,0,-0.462999806098322
"320",3,24,"Male","Forældre","i",1,0.523219626338687,7,36,0,-0.647753967427483
"321",3,24,"Male","Virksomhed","e",1,0.641650743054925,7,37,0,-0.443711137254584
"322",3,24,"Male","Hanne","i",1,0.72847321574227,7,38,0,-0.316804420334004
"323",3,24,"Male","Birthe","i",1,1.34980672996608,7,39,0,0.299961419213448
"324",3,24,"Male","Ægteskab","i",1,0.868582617928041,7,40,0,-0.140892570677274
"325",4,23,"Female","Hanne","i",1,0.588928088836838,3,3,1,-0.529451193044211
"326",4,23,"Female","Ægteskab","e",1,0.813807067985181,3,4,1,-0.206031958289839
"327",4,23,"Female","Virksomhed","i",1,0.67935803355067,3,5,1,-0.386606995032978
"328",4,23,"Female","Ledelse","i",1,0.798194095201325,3,6,1,-0.225403484037907
"329",4,23,"Female","Casper","e",1,0.585683190496638,3,7,1,-0.534976266150326
"330",4,23,"Female","Mikkel","e",1,0.675512307352619,3,8,1,-0.392283902128881
"331",4,23,"Female","Rasmus","e",1,0.682273224898381,3,9,1,-0.382325078348495
"332",4,23,"Female","Slægtninge","e",1,0.814303980441764,3,11,1,-0.205421542344941
"333",4,23,"Female","Sebastian","e",1,0.555955252231797,3,12,1,-0.587067469567859
"334",4,23,"Female","Ruth","i",1,0.619102906202897,3,13,1,-0.479483774229724
"335",4,23,"Female","Jens","e",1,0.665245206211694,3,14,1,-0.407599575145501
"336",4,23,"Female","Josefine","i",1,0.634487949224422,3,15,1,-0.454936984562158
"337",4,23,"Female","Line","i",1,0.682211217761505,3,16,1,-0.382415965624275
"338",4,23,"Female","Birthe","i",1,0.410953883780167,3,17,1,-0.889274275695782
"339",4,23,"Female","Ledelse","i",1,0.845852363127051,3,18,1,-0.167410446275
"340",4,23,"Female","Camilla","i",1,0.572170763422037,3,19,1,-0.558317794704664
"341",4,23,"Female","Kontor","i",1,0.891501599369803,3,20,1,-0.114848047659459
"342",4,23,"Female","Børn","e",1,0.595454234455246,4,3,1,-0.518430745440245
"343",4,23,"Female","Handel","i",1,0.635784967744257,4,4,1,-0.452894873842097
"344",4,23,"Female","Josefine","i",1,0.598267220862908,4,5,1,-0.513717767212362
"345",4,23,"Female","Kontor","i",1,0.747876362001989,4,7,1,-0.290517606110987
"346",4,23,"Female","Jens","e",1,0.553759343834827,4,8,1,-0.591025084022801
"347",4,23,"Female","Ægteskab","e",1,0.618414413038408,4,9,1,-0.480596474997332
"348",4,23,"Female","Hjem","e",1,1.22516592257307,4,10,1,0.203076281822998
"349",4,23,"Female","Virksomhed","i",1,0.611377242952585,4,11,1,-0.492041091427509
"350",4,23,"Female","Hanne","i",1,0.646655890275724,4,12,1,-0.435940980253804
"351",4,23,"Female","Hjem","e",1,0.776413763000164,4,13,1,-0.253069701156912
"352",4,23,"Female","Morten","e",1,0.689430132915732,4,14,1,-0.371889916954474
"353",4,23,"Female","Ole","e",1,0.624634371633874,4,16,1,-0.470588805813952
"354",4,23,"Female","Karriere","i",1,0.543463163456181,4,17,1,-0.609793351247371
"355",4,23,"Female","Rasmus","e",1,0.642325225344393,4,18,1,-0.44266052202796
"356",4,23,"Female","Løn","i",1,0.968624809698667,4,19,1,-0.0318779353634778
"357",4,23,"Female","Casper","e",1,0.534698345902143,4,20,1,-0.626052530538608
"358",4,23,"Female","Virksomhed","i",1,1.16581652726745,4,21,1,0.153421723289376
"359",4,23,"Female","Akademiker","i",1,1.01476796495263,4,22,1,0.014659980401421
"360",4,23,"Female","Karriere","i",1,0.493833495856961,4,23,1,-0.705556871530448
"361",4,23,"Female","Mikkel","e",1,0.627657327131601,4,24,1,-0.465760918872889
"362",4,23,"Female","Ole","e",1,0.648607618757524,4,26,1,-0.432927338712408
"363",4,23,"Female","Hanne","i",1,0.679635996639263,4,27,1,-0.386197923195584
"364",4,23,"Female","Camilla","i",1,0.861834385315888,4,28,1,-0.148692155181313
"365",4,23,"Female","Sebastian","e",1,0.551528369338484,4,29,1,-0.595062001287953
"366",4,23,"Female","Line","i",1,0.477023571293103,4,30,1,-0.740189373605901
"367",4,23,"Female","Morten","e",1,0.544947486341698,4,31,1,-0.6070658442977
"368",4,23,"Female","Ledelse","i",1,0.599629667645786,4,32,1,-0.511443034915391
"369",4,23,"Female","Jens","e",1,0.687044782011071,4,34,1,-0.375355804006397
"370",4,23,"Female","Ruth","i",1,0.829409349826165,4,36,1,-0.187041458233439
"371",4,23,"Female","Ledelse","i",1,0.790864850074286,4,37,1,-0.234628185390032
"372",4,23,"Female","Løn","i",1,0.559305776521796,4,38,1,-0.581058949080276
"373",4,23,"Female","Bryllup","e",1,0.836801457364345,4,39,1,-0.178168444080805
"374",4,23,"Female","Familie","e",1,1.49526607480948,4,40,1,0.402304167467908
"375",4,23,"Female","Hanne","i",1,0.486885701568099,6,3,0,-0.719725882484488
"376",4,23,"Female","Virksomhed","e",1,0.9149377362628,6,5,0,-0.0888992638221907
"377",4,23,"Female","Ledelse","e",1,0.638216075691162,6,6,0,-0.449078376343417
"378",4,23,"Female","Casper","e",1,0.522206684778212,6,7,0,-0.649691821615183
"379",4,23,"Female","Mikkel","e",1,0.425331417529378,6,8,0,-0.85488660799693
"380",4,23,"Female","Rasmus","e",1,0.405150014528772,6,9,0,-0.903497874215174
"381",4,23,"Female","Slægtninge","i",1,0.792397923389217,6,11,0,-0.232691584820922
"382",4,23,"Female","Sebastian","e",1,0.626145635556895,6,12,0,-0.468172290280034
"383",4,23,"Female","Ruth","i",1,0.712155539600644,6,13,0,-0.339458936932583
"384",4,23,"Female","Jens","e",1,0.53074400027981,6,14,0,-0.633475482692886
"385",4,23,"Female","Josefine","i",1,0.618069738819031,6,15,0,-0.481153981905588
"386",4,23,"Female","Line","i",1,1.01990942677367,6,16,0,0.0197138260727477
"387",4,23,"Female","Birthe","i",1,0.447869519848609,6,17,0,-0.803253339326694
"388",4,23,"Female","Ledelse","e",1,1.50678272696678,6,18,0,0.409976733381921
"389",4,23,"Female","Camilla","i",1,0.855450214672601,6,19,0,-0.156127381764523
"390",4,23,"Female","Børn","i",1,0.978897042485187,7,3,0,-0.0213288079827889
"391",4,23,"Female","Handel","e",1,0.668627803155687,7,4,0,-0.40252772172121
"392",4,23,"Female","Josefine","i",1,0.58255888542044,7,5,0,-0.540325007801077
"393",4,23,"Female","Kontor","e",1,0.624698944593547,7,7,0,-0.470485433945306
"394",4,23,"Female","Jens","e",1,0.501238432480022,7,8,0,-0.690673377974233
"395",4,23,"Female","Ægteskab","i",1,0.570860060543055,7,9,0,-0.56061117722066
"396",4,23,"Female","Hjem","i",1,0.763233181089163,7,10,0,-0.270191683523258
"397",4,23,"Female","Virksomhed","e",1,0.630353569053113,7,11,0,-0.461474396302781
"398",4,23,"Female","Hanne","i",1,0.612838473491138,7,12,0,-0.489653879414363
"399",4,23,"Female","Hjem","i",1,0.604872479074402,7,13,0,-0.502737621557601
"400",4,23,"Female","Morten","e",1,0.658131489384687,7,14,0,-0.418350535728932
"401",4,23,"Female","Slægtninge","i",1,0.696747831912944,7,15,0,-0.361331724339389
"402",4,23,"Female","Ole","e",1,0.741266827448271,7,16,0,-0.299394627479955
"403",4,23,"Female","Rasmus","e",1,0.618410991941346,7,18,0,-0.480602007058768
"404",4,23,"Female","Casper","e",1,1.22337455739034,7,20,0,0.201613070969845
"405",4,23,"Female","Virksomhed","e",1,0.526078924391186,7,21,0,-0.642304031129182
"406",4,23,"Female","Akademiker","e",1,0.492713090759935,7,22,0,-0.707828240351581
"407",4,23,"Female","Karriere","e",1,0.556676673324546,7,23,0,-0.585770686368895
"408",4,23,"Female","Mikkel","e",1,0.515337575459853,7,24,0,-0.662933106725921
"409",4,23,"Female","Birthe","i",1,0.548932621750282,7,25,0,-0.599779574056742
"410",4,23,"Female","Ole","e",1,0.627700518292841,7,26,0,-0.465692107957478
"411",4,23,"Female","Hanne","i",1,0.670434135594405,7,27,0,-0.399829812861143
"412",4,23,"Female","Camilla","i",1,0.685663519252557,7,28,0,-0.377368268305505
"413",4,23,"Female","Sebastian","e",1,0.565967482601991,7,29,0,-0.569218653662571
"414",4,23,"Female","Line","i",1,0.532183849049034,7,30,0,-0.630766268420589
"415",4,23,"Female","Morten","e",1,0.644715707923751,7,31,0,-0.4389458222598
"416",4,23,"Female","Ledelse","e",1,0.665456885792082,7,32,0,-0.407281427930665
"417",4,23,"Female","Familie","i",1,0.68297839583829,7,33,0,-0.381292051187921
"418",4,23,"Female","Jens","e",1,0.775349378207466,7,34,0,-0.254441540623077
"419",4,23,"Female","Slægtninge","i",1,0.488816475932254,7,35,0,-0.715768164793771
"420",4,23,"Female","Ruth","i",1,0.650830895814579,7,36,0,-0.429505431170699
"421",4,23,"Female","Ledelse","e",1,0.661960110155633,7,37,0,-0.412549981423117
"422",4,23,"Female","Løn","e",1,0.794142248661956,7,38,0,-0.230492679295159
"423",4,23,"Female","Bryllup","i",1,0.548444262007251,7,39,0,-0.600669623377989
"424",4,23,"Female","Familie","i",1,0.531470980640734,7,40,0,-0.63210668167334
"425",5,24,"Male","Morten","e",1,0.787367500000983,3,3,1,-0.239060176405642
"426",5,24,"Male","Handel","i",1,1.3913266999989,3,4,1,0.330257752365735
"427",5,24,"Male","Ægteskab","e",1,0.867794400001003,3,5,1,-0.141800458737345
"428",5,24,"Male","Ruth","i",1,0.811635100000785,3,6,1,-0.208704424059301
"429",5,24,"Male","Ægteskab","e",1,1.37217000000055,3,7,1,0.316393428333833
"430",5,24,"Male","Hjem","e",1,0.771990399998685,3,8,1,-0.258783164269542
"431",5,24,"Male","Løn","i",1,0.756543600000441,3,9,1,-0.278995113573856
"432",5,24,"Male","Rasmus","e",1,0.764858000000459,3,10,1,-0.268065083299729
"433",5,24,"Male","Ole","e",1,0.657216899999185,3,11,1,-0.41974117799569
"434",5,24,"Male","Sebastian","e",1,0.651215899999443,3,12,1,-0.428914048130823
"435",5,24,"Male","Line","i",1,0.824094699999478,3,13,1,-0.193469828492456
"436",5,24,"Male","Hjem","e",1,0.877899900000557,3,14,1,-0.130222700957536
"437",5,24,"Male","Sebastian","e",1,1.17890369999986,3,15,1,0.164584938829863
"438",5,24,"Male","Børn","e",1,1.04581709999911,3,16,1,0.0447984937561273
"439",5,24,"Male","Casper","e",1,0.736974999999802,3,17,1,-0.305201308670987
"440",5,24,"Male","Familie","e",1,0.727745000000141,3,18,1,-0.317804566871053
"441",5,24,"Male","Mikkel","e",1,0.698989399999846,3,19,1,-0.358119701384274
"442",5,24,"Male","Løn","i",1,0.580739100001665,3,20,1,-0.543453676338293
"443",5,24,"Male","Line","i",1,1.3131932999986,4,3,1,0.272461804590404
"444",5,24,"Male","Bryllup","e",1,1.20053390000066,4,4,1,0.182766374515102
"445",5,24,"Male","Akademiker","i",1,0.826213899999857,4,5,1,-0.190901580147612
"446",5,24,"Male","Løn","i",1,0.679565599999478,4,6,1,-0.386301508476858
"447",5,24,"Male","Ægteskab","e",1,0.861707699999897,4,7,1,-0.148839160951927
"448",5,24,"Male","Josefine","i",1,0.852046800000608,4,8,1,-0.160113824083217
"449",5,24,"Male","Virksomhed","i",1,0.955503299999691,4,9,1,-0.0455170616189286
"450",5,24,"Male","Mette","i",1,0.763450999998895,4,10,1,-0.269906334511448
"451",5,24,"Male","Forældre","e",1,0.711915200001386,4,11,1,-0.339796475784913
"452",5,24,"Male","Birthe","i",1,0.743024700001115,4,12,1,-0.297025991208435
"453",5,24,"Male","Hjem","e",1,0.866180600000007,4,13,1,-0.143661847127545
"454",5,24,"Male","Jens","e",1,0.960533999999825,4,14,1,-0.0402658991701219
"455",5,24,"Male","Familie","e",1,1.22015139999894,4,15,1,0.198974949405388
"456",5,24,"Male","Slægtninge","e",1,0.689938800000164,4,16,1,-0.371152380976461
"457",5,24,"Male","Ole","e",1,0.757408299999952,4,17,1,-0.277852805032169
"458",5,24,"Male","Løn","i",1,0.66596539999955,4,18,1,-0.406517561743925
"459",5,24,"Male","Morten","e",1,0.872344600000361,4,19,1,-0.136570749650934
"460",5,24,"Male","Hanne","i",1,0.57285740000043,4,20,1,-0.55711845885838
"461",5,24,"Male","Camilla","i",1,0.743205300001136,4,21,1,-0.296782960182403
"462",5,24,"Male","Hjem","e",1,0.787034999999378,4,22,1,-0.239482558873337
"463",5,24,"Male","Kontor","i",1,0.787844700000278,4,23,1,-0.238454289765235
"464",5,24,"Male","Karriere","i",1,0.654707199999393,4,24,1,-0.423567166193098
"465",5,24,"Male","Birthe","i",1,0.892625200000111,4,25,1,-0.113588495054508
"466",5,24,"Male","Jens","e",1,0.76754609999989,4,26,1,-0.264556736178186
"467",5,24,"Male","Akademiker","i",1,0.79860280000139,4,27,1,-0.224891578221684
"468",5,24,"Male","Camilla","i",1,0.654433899999276,4,28,1,-0.42398469185796
"469",5,24,"Male","Virksomhed","i",1,0.783454000000347,4,29,1,-0.244042929821743
"470",5,24,"Male","Morten","e",1,0.589509499999622,4,30,1,-0.528464443783211
"471",5,24,"Male","Karriere","i",1,0.843665399999736,4,31,1,-0.169999308489415
"472",5,24,"Male","Kontor","i",1,0.728603599998678,4,32,1,-0.316625453438988
"473",5,24,"Male","Handel","i",1,0.689504800000577,4,33,1,-0.371781620205823
"474",5,24,"Male","Josefine","i",1,0.748003700000481,4,34,1,-0.290347354495186
"475",5,24,"Male","Ruth","i",1,0.639226000001145,4,35,1,-0.447497209510715
"476",5,24,"Male","Casper","e",1,0.660026699999435,4,36,1,-0.415474990235331
"477",5,24,"Male","Handel","i",1,0.751732099999572,4,37,1,-0.285375268504973
"478",5,24,"Male","Ledelse","i",1,1.78083119999974,4,38,1,0.577080221601153
"479",5,24,"Male","Rasmus","e",1,0.671098699998765,4,39,1,-0.398839058939824
"480",5,24,"Male","Line","i",1,0.607314999999289,4,40,1,-0.498707676895261
"481",5,24,"Male","Morten","e",1,0.648219900000186,6,3,0,-0.433525288344541
"482",5,24,"Male","Handel","e",1,0.803940800000419,6,4,0,-0.218229644354403
"483",5,24,"Male","Ægteskab","i",1,0.720008400001461,6,5,0,-0.328492400371395
"484",5,24,"Male","Ruth","i",1,0.53555790000064,6,6,0,-0.624446271688736
"485",5,24,"Male","Ægteskab","i",1,0.715805899999395,6,7,0,-0.33434623815918
"486",5,24,"Male","Hjem","i",1,0.670575099999041,6,8,0,-0.399619576568336
"487",5,24,"Male","Løn","e",1,0.666445500000918,6,9,0,-0.405796913147991
"488",5,24,"Male","Rasmus","e",1,0.52192549999927,6,10,0,-0.650230421592923
"489",5,24,"Male","Ole","e",1,0.565297700000883,6,11,0,-0.570402783943729
"490",5,24,"Male","Sebastian","e",1,0.559466799999427,6,12,0,-0.580771091687055
"491",5,24,"Male","Line","i",1,0.761779399999796,6,13,0,-0.272098266521689
"492",5,24,"Male","Hjem","i",1,0.774600999999166,6,14,0,-0.255407220914498
"493",5,24,"Male","Sebastian","e",1,0.893278199999259,6,15,0,-0.112857212468621
"494",5,24,"Male","Børn","i",1,0.871075900000505,6,16,0,-0.138026164708637
"495",5,24,"Male","Casper","e",1,0.764766300000701,6,17,0,-0.268184982022398
"496",5,24,"Male","Familie","i",1,0.699536800000715,6,18,0,-0.357336877252952
"497",5,24,"Male","Mikkel","e",1,0.534483599998566,6,19,0,-0.626454231871646
"498",5,24,"Male","Løn","e",1,0.591297700000723,6,20,0,-0.525435665896178
"499",5,24,"Male","Line","i",1,0.601825900001131,7,3,0,-0.507787078156397
"500",5,24,"Male","Bryllup","i",1,0.662522599999647,7,4,0,-0.411700608496587
"501",5,24,"Male","Akademiker","e",1,0.635095799998453,7,5,0,-0.453979425329301
"502",5,24,"Male","Løn","e",1,0.533418299999539,7,6,0,-0.628449359612127
"503",5,24,"Male","Ægteskab","i",1,0.61952939999901,7,7,0,-0.478795121413497
"504",5,24,"Male","Josefine","i",1,0.64313840000068,7,8,0,-0.44139533684695
"505",5,24,"Male","Virksomhed","e",1,0.702980100000786,7,9,0,-0.352426694825634
"506",5,24,"Male","Mette","i",1,0.628670000000056,7,10,0,-0.464148802243876
"507",5,24,"Male","Forældre","i",1,0.884155199999441,7,11,0,-0.123122666144105
"508",5,24,"Male","Birthe","i",1,0.628187199999957,7,12,0,-0.464917067761783
"509",5,24,"Male","Hjem","i",1,0.554261999999653,7,13,0,-0.590117779841152
"510",5,24,"Male","Jens","e",1,0.843794600001274,7,14,0,-0.169846178931629
"511",5,24,"Male","Familie","i",1,0.803619199999957,7,15,0,-0.218629753843009
"512",5,24,"Male","Slægtninge","i",1,0.99302759999955,7,16,0,-0.00699682076174562
"513",5,24,"Male","Ole","e",1,0.535763800000495,7,17,0,-0.624061886676484
"514",5,24,"Male","Løn","e",1,0.575603299999784,7,18,0,-0.552336570837714
"515",5,24,"Male","Morten","e",1,0.553551799999696,7,19,0,-0.591399944943721
"516",5,24,"Male","Hanne","i",1,0.629780600000231,7,20,0,-0.462383774218942
"517",5,24,"Male","Camilla","i",1,0.538690499999575,7,21,0,-0.618614084499273
"518",5,24,"Male","Hjem","i",1,0.663831600000776,7,22,0,-0.40972677612795
"519",5,24,"Male","Kontor","e",1,0.608467600000949,7,23,0,-0.49681161365671
"520",5,24,"Male","Karriere","e",1,0.579455399998551,7,24,0,-0.545666582065678
"521",5,24,"Male","Birthe","i",1,0.579500599998937,7,25,0,-0.545588580829377
"522",5,24,"Male","Jens","e",1,0.585772999998881,7,26,0,-0.534822936468607
"523",5,24,"Male","Akademiker","e",1,1.04650570000013,7,27,0,0.0454567096163895
"524",5,24,"Male","Camilla","i",1,0.635666300000594,7,28,0,-0.453081538871294
"525",5,24,"Male","Virksomhed","e",1,0.634068900000784,7,29,0,-0.455597655369519
"526",5,24,"Male","Morten","e",1,0.782957800000077,7,30,0,-0.244676479718224
"527",5,24,"Male","Karriere","e",1,0.732742899999721,7,31,0,-0.310960388964219
"528",5,24,"Male","Kontor","e",1,0.807778399999734,7,32,0,-0.213467515502559
"529",5,24,"Male","Handel","e",1,0.660547500001485,7,33,0,-0.414686242387539
"530",5,24,"Male","Josefine","i",1,0.632599200000186,7,34,0,-0.457918232733288
"531",5,24,"Male","Ruth","i",1,0.716056400000525,7,35,0,-0.333996344173306
"532",5,24,"Male","Casper","e",1,0.603705699999409,7,36,0,-0.504668451449592
"533",5,24,"Male","Handel","e",1,0.622740599999815,7,37,0,-0.473625219293687
"534",5,24,"Male","Ledelse","e",1,0.595422299998972,7,38,0,-0.518484377291
"535",5,24,"Male","Rasmus","e",1,0.635706299999583,7,39,0,-0.453018614754473
"536",5,24,"Male","Line","i",1,0.642438700000639,7,40,0,-0.442483875323765
"537",6,21,"Female","Rasmus","e",1,0.615710342157399,3,3,1,-0.48497864980894
"538",6,21,"Female","Karriere","i",1,1.46050481367274,3,4,1,0.378782138747616
"539",6,21,"Female","Akademiker","i",1,0.872275320783956,3,5,1,-0.136650170062928
"540",6,21,"Female","Hjem","e",1,1.30376463805442,3,6,1,0.265255954924211
"541",6,21,"Female","Slægtninge","e",1,0.632252758485265,3,7,1,-0.458466030475562
"542",6,21,"Female","Børn","e",1,0.881927666749107,3,8,1,-0.125645236826931
"543",6,21,"Female","Casper","e",1,1.03390146663878,3,9,1,0.0333394781594425
"544",6,21,"Female","Familie","e",1,0.902238201873843,3,10,1,-0.102876711882953
"545",6,21,"Female","Camilla","i",1,0.803969912172761,3,11,1,-0.218193433174112
"546",6,21,"Female","Morten","e",1,1.08537886015256,3,12,1,0.0819291059074319
"547",6,21,"Female","Mette","i",1,0.818898249184713,3,13,1,-0.199795440716935
"548",6,21,"Female","Kontor","i",1,0.824504017567961,3,14,1,-0.192973264261838
"549",6,21,"Female","Ledelse","i",1,0.816391673724866,3,15,1,-0.202861046867606
"550",6,21,"Female","Birthe","i",1,1.16777365942835,3,16,1,0.155099080891345
"551",6,21,"Female","Rasmus","e",1,0.897998398868367,3,17,1,-0.107586993678891
"552",6,21,"Female","Løn","i",1,0.842574833572144,3,18,1,-0.171292797469139
"553",6,21,"Female","Ole","e",1,0.999209694651654,3,19,1,-0.000790617804252384
"554",6,21,"Female","Løn","i",1,1.32999242271762,3,20,1,0.285173245012639
"555",6,21,"Female","Handel","i",1,0.803948938497342,4,3,1,-0.218219521151638
"556",6,21,"Female","Camilla","i",1,1.16311973816482,4,4,1,0.151105824526508
"557",6,21,"Female","Akademiker","i",1,1.835292957403,4,5,1,0.607204118574757
"558",6,21,"Female","Josefine","i",1,0.706869007466594,4,6,1,-0.346909909648526
"559",6,21,"Female","Casper","e",1,0.773904394038254,4,7,1,-0.25630693493627
"560",6,21,"Female","Sebastian","e",1,0.55616255212226,4,8,1,-0.58669466752827
"561",6,21,"Female","Karriere","i",1,0.83206390630221,4,9,1,-0.183846030651314
"562",6,21,"Female","Hjem","e",1,0.791419631161261,4,10,1,-0.233926944726563
"563",6,21,"Female","Løn","i",1,0.757755122263916,4,11,1,-0.277395003233465
"564",6,21,"Female","Hjem","e",1,0.696563800534932,4,12,1,-0.361595888327971
"565",6,21,"Female","Kontor","i",1,0.929475845914567,4,13,1,-0.073134458264182
"566",6,21,"Female","Akademiker","i",1,0.835138555557933,4,14,1,-0.180157633097018
"567",6,21,"Female","Morten","e",1,0.798086131224409,4,15,1,-0.225538753491595
"568",6,21,"Female","Virksomhed","i",1,1.03581676341128,4,16,1,0.0351902588999381
"569",6,21,"Female","Rasmus","e",1,0.693128136568703,4,17,1,-0.366540395630824
"570",6,21,"Female","Casper","e",1,0.588008153863484,4,18,1,-0.531014464064889
"571",6,21,"Female","Bryllup","e",1,0.940359390369849,4,19,1,-0.0614931466069564
"572",6,21,"Female","Forældre","e",1,0.606625177490059,4,20,1,-0.499844178670673
"573",6,21,"Female","Mette","i",1,0.636697835609084,4,21,1,-0.451460091353841
"574",6,21,"Female","Børn","e",1,1.21545660548145,4,22,1,0.195119813175372
"575",6,21,"Female","Slægtninge","e",1,0.627330642135348,4,23,1,-0.466281537415269
"576",6,21,"Female","Forældre","e",1,0.699796867877012,4,24,1,-0.35696517479876
"577",6,21,"Female","Line","i",1,0.812994387088111,4,25,1,-0.207031073408822
"578",6,21,"Female","Ole","e",1,0.909346933767665,4,26,1,-0.0950285923093733
"579",6,21,"Female","Birthe","i",1,0.988325703976443,4,27,1,-0.0117429756649682
"580",6,21,"Female","Handel","i",1,0.783778971555876,4,28,1,-0.243628222415654
"581",6,21,"Female","Bryllup","e",1,0.815095323050627,4,29,1,-0.204450211782339
"582",6,21,"Female","Jens","e",1,1.60311632882804,4,30,1,0.471949440444185
"583",6,21,"Female","Ole","e",1,0.594896439200966,4,31,1,-0.519367940348356
"584",6,21,"Female","Familie","e",1,0.847479099960765,4,32,1,-0.165489100844871
"585",6,21,"Female","Mette","i",1,0.86052784009371,4,33,1,-0.150209310462026
"586",6,21,"Female","Mikkel","e",1,0.718123830272816,4,34,1,-0.331113259243363
"587",6,21,"Female","Morten","e",1,1.18042345371214,4,35,1,0.165873233181137
"588",6,21,"Female","Familie","e",1,0.727810091106221,4,36,1,-0.317715128681428
"589",6,21,"Female","Hanne","i",1,0.811623513000086,4,37,1,-0.208718700281965
"590",6,21,"Female","Jens","e",1,0.886008159199264,4,38,1,-0.121029119390944
"591",6,21,"Female","Børn","e",1,0.704802878841292,4,39,1,-0.349837119746926
"592",6,21,"Female","Ledelse","i",1,0.708037284930469,4,40,1,-0.345258524343858
"593",6,21,"Female","Rasmus","e",1,0.98092021708726,6,3,0,-0.0192641508716309
"594",6,21,"Female","Karriere","e",1,0.869479130313266,6,4,0,-0.13986094741574
"595",6,21,"Female","Akademiker","e",1,0.846188550523948,6,5,0,-0.167013071248653
"596",6,21,"Female","Hjem","i",1,0.812467368115904,6,6,0,-0.20767952790366
"597",6,21,"Female","Slægtninge","i",1,0.903024937259033,6,7,0,-0.102005109934248
"598",6,21,"Female","Børn","i",1,0.95922899042489,6,8,0,-0.0416254521800063
"599",6,21,"Female","Casper","e",1,0.692839414055925,6,9,0,-0.36695703239382
"600",6,21,"Female","Familie","i",1,1.11831062971032,6,10,0,0.111819180247216
"601",6,21,"Female","Camilla","i",1,0.816920923942234,6,11,0,-0.202212977126824
"602",6,21,"Female","Morten","e",1,0.837207807926461,6,12,0,-0.177682962215773
"603",6,21,"Female","Mette","i",1,0.924730890081264,6,13,0,-0.0782525134398267
"604",6,21,"Female","Kontor","e",1,1.1190737139259,6,14,0,0.112501301982211
"605",6,21,"Female","Ledelse","e",1,0.699730376916705,6,15,0,-0.357060193971276
"606",6,21,"Female","Birthe","i",1,0.936570744146593,6,16,0,-0.0655302189509723
"607",6,21,"Female","Rasmus","e",1,0.681954084633617,6,17,0,-0.382792947989216
"608",6,21,"Female","Løn","e",1,1.01791686043725,6,18,0,0.017758245281656
"609",6,21,"Female","Ole","e",1,1.00260073380196,6,19,0,0.00259735774601605
"610",6,21,"Female","Løn","e",1,0.758399058220675,6,20,0,-0.276545569839729
"611",6,21,"Female","Handel","e",1,1.02213078102795,7,3,0,0.0218894493753676
"612",6,21,"Female","Camilla","i",1,1.00352312860196,7,4,0,0.00351693692284183
"613",6,21,"Female","Akademiker","e",1,0.724382905842504,7,5,0,-0.322435150928692
"614",6,21,"Female","Josefine","i",1,0.957155721844174,7,6,0,-0.0437891820159997
"615",6,21,"Female","Casper","e",1,0.755562705453485,7,7,0,-0.280292502098732
"616",6,21,"Female","Sebastian","e",1,1.28308059330448,7,8,0,0.249263899954073
"617",6,21,"Female","Karriere","e",1,0.561195337970275,7,9,0,-0.577686238040162
"618",6,21,"Female","Hjem","i",1,0.822873427096056,7,10,0,-0.194952884669651
"619",6,21,"Female","Løn","e",1,0.734446692542406,7,11,0,-0.308637862526984
"620",6,21,"Female","Hjem","i",1,0.903695648099529,7,12,0,-0.101262647733129
"621",6,21,"Female","Kontor","e",1,1.02474713351694,7,13,0,0.0244458831473016
"622",6,21,"Female","Akademiker","e",1,0.94541939732153,7,14,0,-0.0561266432520054
"623",6,21,"Female","Morten","e",1,0.805562125344295,7,15,0,-0.216214952903078
"624",6,21,"Female","Virksomhed","e",1,0.679184222826734,7,16,0,-0.386862873308488
"625",6,21,"Female","Rasmus","e",1,0.712244065565756,7,17,0,-0.339334637592841
"626",6,21,"Female","Casper","e",1,0.72754903594614,7,18,0,-0.318073878845602
"627",6,21,"Female","Bryllup","i",1,0.677028844598681,7,19,0,-0.39004140048018
"628",6,21,"Female","Forældre","i",1,0.881202513643075,7,20,0,-0.126467811535236
"629",6,21,"Female","Mette","i",1,1.1190473852912,7,21,0,0.11247777453795
"630",6,21,"Female","Børn","i",1,0.97135890572099,7,22,0,-0.029059254143855
"631",6,21,"Female","Slægtninge","i",1,1.06923048090539,7,23,0,0.0669392130182429
"632",6,21,"Female","Forældre","i",1,0.6875589605188,7,24,0,-0.374607692364036
"633",6,21,"Female","Line","i",1,0.870888381759869,7,25,0,-0.138241459870914
"634",6,21,"Female","Ole","e",1,0.711314084561309,7,26,0,-0.340641196284049
"635",6,21,"Female","Birthe","i",1,0.762197968142573,7,27,0,-0.271548956325814
"636",6,21,"Female","Handel","e",1,0.703137481003068,7,28,0,-0.352202842986975
"637",6,21,"Female","Bryllup","i",1,0.765918784629321,7,29,0,-0.266679140150717
"638",6,21,"Female","Jens","e",1,0.75588846654864,7,30,0,-0.279861444706693
"639",6,21,"Female","Ole","e",1,0.757123234972823,7,31,0,-0.278229244906694
"640",6,21,"Female","Familie","i",1,0.74776139651658,7,32,0,-0.290671340509548
"641",6,21,"Female","Mette","i",1,1.48724132112693,7,33,0,0.396922941551575
"642",6,21,"Female","Mikkel","e",1,0.79397707892349,7,34,0,-0.230700686006233
"643",6,21,"Female","Morten","e",1,1.39590147914714,7,35,0,0.333540428172909
"644",6,21,"Female","Familie","i",1,0.72112797232694,7,36,0,-0.326938664622016
"645",6,21,"Female","Hanne","i",1,0.84548972605262,7,37,0,-0.167839262044805
"646",6,21,"Female","Jens","e",1,0.791175087215379,7,38,0,-0.234235986510905
"647",6,21,"Female","Børn","i",1,0.780503510613926,7,39,0,-0.247816041132953
"648",6,21,"Female","Ledelse","e",1,0.905514109006617,7,40,0,-0.0992524203260362
"649",7,24,"Male","Ledelse","i",1,1.34349352557911,3,3,1,0.295273329991537
"650",7,24,"Male","Ole","e",1,1.15888968715444,3,4,1,0.147462380495973
"651",7,24,"Male","Bryllup","e",1,1.24241118010832,3,5,1,0.217053991611207
"652",7,24,"Male","Børn","e",1,2.23055028138333,3,6,1,0.802248317983224
"653",7,24,"Male","Casper","e",1,1.83631010417594,3,7,1,0.607758179992563
"654",7,24,"Male","Familie","e",1,1.10058415011736,3,8,1,0.0958410844107639
"655",7,24,"Male","Akademiker","i",1,0.930630676855799,3,9,1,-0.0718927755159422
"656",7,24,"Male","Birthe","i",1,1.28252424695529,3,10,1,0.248830203892095
"657",7,24,"Male","Familie","e",1,0.960326542466646,3,11,1,-0.0404819039548516
"658",7,24,"Male","Mette","i",1,0.866159918572521,3,12,1,-0.143685723989242
"659",7,24,"Male","Karriere","i",1,1.39540206291713,3,13,1,0.333182590891641
"660",7,24,"Male","Løn","i",1,0.793552111659665,3,14,1,-0.231236068002982
"661",7,24,"Male","Casper","e",1,0.87116753050941,3,15,1,-0.13792097790479
"662",7,24,"Male","Rasmus","e",1,1.16327508937684,3,16,1,0.151239379854613
"663",7,24,"Male","Ægteskab","e",1,1.42316843708977,3,17,1,0.35288567969929
"664",7,24,"Male","Sebastian","e",1,0.890096816699952,3,18,1,-0.116425039363438
"665",7,24,"Male","Bryllup","e",1,1.7450000855315,3,19,1,0.556754604669576
"666",7,24,"Male","Jens","e",1,1.09517798191519,3,20,1,0.0909168906219913
"667",7,24,"Male","Rasmus","e",1,0.892474897787906,4,3,1,-0.113756891451715
"668",7,24,"Male","Hanne","i",1,0.801611330622109,4,4,1,-0.221131413743814
"669",7,24,"Male","Ægteskab","e",1,1.40434178340365,4,5,1,0.339568711450699
"670",7,24,"Male","Kontor","i",1,0.819170472619589,4,6,1,-0.199463069512041
"671",7,24,"Male","Løn","i",1,0.680678572040051,4,7,1,-0.384665078324359
"672",7,24,"Male","Bryllup","e",1,0.6824177656963,4,8,1,-0.382113249004775
"673",7,24,"Male","Børn","e",1,1.72954918662435,4,9,1,0.547860788785048
"674",7,24,"Male","Jens","e",1,0.795127948542358,4,10,1,-0.229252235714794
"675",7,24,"Male","Line","i",1,0.651082345488248,4,11,1,-0.429119154007492
"676",7,24,"Male","Ruth","i",1,0.640024973894469,4,12,1,-0.446248081679638
"677",7,24,"Male","Børn","e",1,1.15830468176864,4,13,1,0.146957454878963
"678",7,24,"Male","Handel","i",1,0.651518533733906,4,14,1,-0.428449435033831
"679",7,24,"Male","Mikkel","e",1,0.994143103947863,4,15,1,-0.0058741149335363
"680",7,24,"Male","Familie","e",1,1.2340735704056,4,16,1,0.210320543159511
"681",7,24,"Male","Løn","i",1,0.60731812659651,4,17,1,-0.498702528678647
"682",7,24,"Male","Karriere","i",1,0.68987701201695,4,18,1,-0.37124194073178
"683",7,24,"Male","Akademiker","i",1,1.32071038812865,4,19,1,0.278169764659952
"684",7,24,"Male","Hanne","i",1,0.959405843197601,4,20,1,-0.0414410994620085
"685",7,24,"Male","Handel","i",1,0.991166333114961,4,21,1,-0.00887291502799215
"686",7,24,"Male","Forældre","e",1,0.769946631073253,4,22,1,-0.261434076830953
"687",7,24,"Male","Camilla","i",1,1.04873590939678,4,23,1,0.0475855430921263
"688",7,24,"Male","Ledelse","i",1,1.05884008141584,4,24,1,0.0571740461660543
"689",7,24,"Male","Mikkel","e",1,0.847594977851259,4,25,1,-0.165352377745638
"690",7,24,"Male","Mette","i",1,1.34131472260924,4,26,1,0.293650269238769
"691",7,24,"Male","Slægtninge","e",1,0.901037016155897,4,27,1,-0.10420893880383
"692",7,24,"Male","Virksomhed","i",1,0.682688458968187,4,28,1,-0.381716659683675
"693",7,24,"Male","Forældre","e",1,1.7410128119518,4,29,1,0.554467019720379
"694",7,24,"Male","Casper","e",1,0.773747883213218,4,30,1,-0.256509190737357
"695",7,24,"Male","Josefine","i",1,0.720827987912344,4,31,1,-0.327354744484642
"696",7,24,"Male","Ole","e",1,0.79541574724135,4,32,1,-0.22889034851497
"697",7,24,"Male","Karriere","i",1,0.802213441435015,4,33,1,-0.220380570071009
"698",7,24,"Male","Ledelse","i",1,0.653947503480595,4,34,1,-0.424728200654087
"699",7,24,"Male","Hjem","e",1,1.49548887292622,4,35,1,0.402453158689886
"700",7,24,"Male","Mette","i",1,0.919505311234389,4,36,1,-0.0839194587343364
"701",7,24,"Male","Ole","e",1,1.65900643164059,4,37,1,0.506218888018509
"702",7,24,"Male","Rasmus","e",1,0.740736131789163,4,38,1,-0.300110814554326
"703",7,24,"Male","Line","i",1,0.754528232500888,4,39,1,-0.281662582652712
"704",7,24,"Male","Hjem","e",1,1.08490788732888,4,40,1,0.0814950869174368
"705",7,24,"Male","Ledelse","e",1,0.934254032588797,6,3,0,-0.0680068942343189
"706",7,24,"Male","Ole","e",1,0.991312156809727,6,4,0,-0.00872580251628555
"707",7,24,"Male","Bryllup","i",1,1.19712799985427,6,5,0,0.179925354738745
"708",7,24,"Male","Børn","i",1,1.35584791569272,6,6,0,0.304427026659395
"709",7,24,"Male","Casper","e",1,0.96345384104643,6,7,0,-0.0372306998555697
"710",7,24,"Male","Familie","i",1,1.06060065684142,6,8,0,0.0588354050318604
"711",7,24,"Male","Akademiker","e",1,0.948036297719227,6,9,0,-0.0533624887267481
"712",7,24,"Male","Birthe","i",1,0.935811053524958,6,10,0,-0.0663416887743455
"713",7,24,"Male","Familie","i",1,1.48873779099085,6,11,0,0.397928640807972
"714",7,24,"Male","Mette","i",1,1.16506773745641,6,12,0,0.152779229066791
"715",7,24,"Male","Karriere","e",1,1.10652913909871,6,13,0,0.10122821463914
"716",7,24,"Male","Løn","e",1,1.14434494791203,6,14,0,0.134832375402339
"717",7,24,"Male","Casper","e",1,1.03400087237242,6,15,0,0.0334356197729383
"718",7,24,"Male","Rasmus","e",1,1.07356913157855,6,16,0,0.0709887345664788
"719",7,24,"Male","Ægteskab","i",1,0.915042934590019,6,17,0,-0.0887842917582662
"720",7,24,"Male","Sebastian","e",1,0.954458955529844,6,18,0,-0.0466106377573069
"721",7,24,"Male","Bryllup","i",1,1.8321812832437,6,19,0,0.605507215091984
"722",7,24,"Male","Jens","e",1,0.896404012921266,6,20,0,-0.109364060357146
"723",7,24,"Male","Rasmus","e",1,0.893325464829104,7,3,0,-0.112804302211258
"724",7,24,"Male","Hanne","i",1,0.807277501240605,7,4,0,-0.214087802112829
"725",7,24,"Male","Ægteskab","i",1,1.3506397427409,7,5,0,0.300578363714781
"726",7,24,"Male","Kontor","e",1,1.70393552968744,7,6,0,0.532940593000906
"727",7,24,"Male","Løn","e",1,0.715081849455601,7,7,0,-0.335358268076787
"728",7,24,"Male","Bryllup","i",1,1.01713706576265,7,8,0,0.0169918825796898
"729",7,24,"Male","Børn","i",1,1.81657130393432,7,9,0,0.596950825382063
"730",7,24,"Male","Jens","e",1,0.833049810986267,7,10,0,-0.182661841500708
"731",7,24,"Male","Line","i",1,1.00001924359822,7,11,0,1.92434130614838e-05
"732",7,24,"Male","Ruth","i",1,0.653973161592148,7,12,0,-0.424688965687866
"733",7,24,"Male","Børn","i",1,1.24762747815112,7,13,0,0.221243730317494
"734",7,24,"Male","Handel","e",1,0.735227758676047,7,14,0,-0.307574952021151
"735",7,24,"Male","Mikkel","e",1,1.10811823268887,7,15,0,0.102663290835125
"736",7,24,"Male","Familie","i",1,0.829547048459062,7,16,0,-0.186875451901559
"737",7,24,"Male","Løn","e",1,1.09530670021195,7,17,0,0.0910344155679202
"738",7,24,"Male","Karriere","e",1,1.30691016232595,7,18,0,0.267665696492334
"739",7,24,"Male","Akademiker","e",1,1.81522254151059,7,19,0,0.596208072603059
"740",7,24,"Male","Hanne","i",1,1.32635004533222,7,20,0,0.282430842847253
"741",7,24,"Male","Handel","e",1,0.88960546348244,7,21,0,-0.116977214000137
"742",7,24,"Male","Forældre","i",1,0.939742306858534,7,22,0,-0.0621495829416333
"743",7,24,"Male","Camilla","i",1,0.856718581606401,7,23,0,-0.154645790500187
"744",7,24,"Male","Ledelse","e",1,0.767386377236107,7,24,0,-0.264764853169296
"745",7,24,"Male","Mikkel","e",1,0.772828039189335,7,25,0,-0.257698714147131
"746",7,24,"Male","Mette","i",1,0.976680607564049,7,26,0,-0.0235955917846417
"747",7,24,"Male","Slægtninge","i",1,1.80146935564699,7,27,0,0.588602640596156
"748",7,24,"Male","Virksomhed","e",1,0.884124031406827,7,28,0,-0.123157919165305
"749",7,24,"Male","Forældre","i",1,2.30853603256401,7,29,0,0.836613571491136
"750",7,24,"Male","Casper","e",1,0.815131455165101,7,30,0,-0.204405884066757
"751",7,24,"Male","Josefine","i",1,1.4610013513302,7,31,0,0.379122057703245
"752",7,24,"Male","Ole","e",1,0.857710268377559,7,32,0,-0.153488919065401
"753",7,24,"Male","Karriere","e",1,1.27229007371352,7,33,0,0.240818484291802
"754",7,24,"Male","Ledelse","e",1,0.680135902570328,7,34,0,-0.385462644059608
"755",7,24,"Male","Hjem","i",1,0.835069961176487,7,35,0,-0.180239771801015
"756",7,24,"Male","Mette","i",1,0.878479670209344,7,36,0,-0.129562513103295
"757",7,24,"Male","Ole","e",1,0.982366021780763,7,37,0,-0.0177913091369506
"758",7,24,"Male","Rasmus","e",1,0.864524640375748,7,38,0,-0.145575471806045
"759",7,24,"Male","Line","i",1,0.672915276838467,7,39,0,-0.396135846060782
"760",7,24,"Male","Hjem","i",1,1.05139879576745,7,40,0,0.050121464041564
"761",8,21,"Female","Bryllup","e",1,1.25644445401849,3,3,1,0.228285870115078
"762",8,21,"Female","Ruth","i",1,0.742866268003127,3,4,1,-0.297239239693015
"763",8,21,"Female","Handel","i",1,0.587272990000201,3,5,1,-0.532265507635196
"764",8,21,"Female","Virksomhed","i",1,0.484409017022699,3,6,1,-0.724825652648421
"765",8,21,"Female","Kontor","i",1,0.886881101992913,3,8,1,-0.120044350761224
"766",8,21,"Female","Morten","e",1,0.595662667998113,3,9,1,-0.518080765443212
"767",8,21,"Female","Mette","i",1,0.548009304009611,3,10,1,-0.60146301405852
"768",8,21,"Female","Hjem","e",1,0.555106432992034,3,11,1,-0.588595412464623
"769",8,21,"Female","Jens","e",1,0.650889368989738,3,12,1,-0.429415591322954
"770",8,21,"Female","Løn","i",1,0.543291500012856,3,13,1,-0.610109270654986
"771",8,21,"Female","Mette","i",1,0.805927081004484,3,14,1,-0.215762010785948
"772",8,21,"Female","Line","i",1,0.573576115013566,3,15,1,-0.555864631056105
"773",8,21,"Female","Ole","e",1,0.583063836005749,3,16,1,-0.539458602904167
"774",8,21,"Female","Børn","e",1,0.643714277015533,3,17,1,-0.440500320558636
"775",8,21,"Female","Kontor","i",1,0.539840741985245,3,18,1,-0.616481105171483
"776",8,21,"Female","Forældre","e",1,0.81480255999486,3,19,1,-0.204809452765424
"777",8,21,"Female","Mette","i",1,1.34889950999059,3,20,1,0.299289082227502
"778",8,21,"Female","Mette","i",1,0.498984802979976,4,3,1,-0.695179638644328
"779",8,21,"Female","Slægtninge","e",1,0.548091832984937,4,4,1,-0.601312427634153
"780",8,21,"Female","Virksomhed","i",1,0.550961966015166,4,5,1,-0.596089499407416
"781",8,21,"Female","Familie","e",1,0.657356006006012,4,6,1,-0.419529541186942
"782",8,21,"Female","Hanne","i",1,0.511168695986271,4,7,1,-0.671055614127419
"783",8,21,"Female","Josefine","i",1,0.535940445988672,4,8,1,-0.623732232314402
"784",8,21,"Female","Ægteskab","e",1,0.599358650011709,4,9,1,-0.511895112111977
"785",8,21,"Female","Bryllup","e",1,0.707778043986764,4,10,1,-0.345624731632772
"786",8,21,"Female","Camilla","i",1,0.560152806981932,4,12,1,-0.57954566286449
"787",8,21,"Female","Ledelse","i",1,0.567889472004026,4,14,1,-0.565828470738584
"788",8,21,"Female","Virksomhed","i",1,0.428395627997816,4,15,1,-0.847708145881217
"789",8,21,"Female","Ægteskab","e",1,0.633102566003799,4,16,1,-0.457122838362084
"790",8,21,"Female","Familie","e",1,0.57889845900354,4,17,1,-0.546628189839675
"791",8,21,"Female","Børn","e",1,0.447334141004831,4,18,1,-0.804449444595293
"792",8,21,"Female","Jens","e",1,0.450814392999746,4,19,1,-0.79669956964264
"793",8,21,"Female","Karriere","i",1,0.57457822401193,4,20,1,-0.554119030802263
"794",8,21,"Female","Hjem","e",1,0.669794519984862,4,21,1,-0.400784300224833
"795",8,21,"Female","Løn","i",1,0.63945461899857,4,22,1,-0.447139623736027
"796",8,21,"Female","Kontor","i",1,0.589842289016815,4,23,1,-0.527900084566351
"797",8,21,"Female","Akademiker","i",1,0.559747364983195,4,25,1,-0.580269731003062
"798",8,21,"Female","Line","i",1,0.628577720024623,4,26,1,-0.464295599051107
"799",8,21,"Female","Mikkel","e",1,0.844498734979425,4,27,1,-0.169012040687536
"800",8,21,"Female","Sebastian","e",1,0.79429428599542,4,28,1,-0.2303012491302
"801",8,21,"Female","Slægtninge","e",1,0.669196206989,4,29,1,-0.401677977863715
"802",8,21,"Female","Morten","e",1,0.508921031985665,4,30,1,-0.675462417914235
"803",8,21,"Female","Jens","e",1,0.464472374005709,4,31,1,-0.766853197188626
"804",8,21,"Female","Morten","e",1,0.484058420988731,4,32,1,-0.725549675027538
"805",8,21,"Female","Casper","e",1,0.522882533987286,4,33,1,-0.648398440550383
"806",8,21,"Female","Børn","e",1,1.00964364598622,4,34,1,0.00959744283929482
"807",8,21,"Female","Forældre","e",1,0.462212026002817,4,35,1,-0.771731562434875
"808",8,21,"Female","Bryllup","e",1,0.489171603985596,4,36,1,-0.71504192267233
"809",8,21,"Female","Akademiker","i",1,0.471038666000823,4,37,1,-0.752815094915194
"810",8,21,"Female","Line","i",1,0.518804221006576,4,38,1,-0.656228690477002
"811",8,21,"Female","Ledelse","i",1,0.486077340989141,4,39,1,-0.721387529904988
"812",8,21,"Female","Kontor","i",1,0.430853765981738,4,40,1,-0.841986536515861
"813",8,21,"Female","Bryllup","i",1,0.473659590992611,6,3,0,-0.747266377752101
"814",8,21,"Female","Ruth","i",1,0.481186380027793,6,4,0,-0.731500599463827
"815",8,21,"Female","Handel","e",1,0.516541277000215,6,5,0,-0.660600076867863
"816",8,21,"Female","Virksomhed","e",1,0.482505580992438,6,6,0,-0.728762791446286
"817",8,21,"Female","Camilla","i",1,0.46384305000538,6,7,0,-0.768209038275521
"818",8,21,"Female","Kontor","e",1,0.574593349010684,6,8,0,-0.554092707494047
"819",8,21,"Female","Morten","e",1,0.688132525014225,6,9,0,-0.373773836031143
"820",8,21,"Female","Mette","i",1,0.634680752002168,6,10,0,-0.454633159264476
"821",8,21,"Female","Hjem","i",1,0.912720631982666,6,11,0,-0.0913254342774587
"822",8,21,"Female","Jens","e",1,0.588509880995844,6,12,0,-0.530161562285386
"823",8,21,"Female","Løn","e",1,0.654927363008028,6,13,0,-0.42323094566727
"824",8,21,"Female","Mette","i",1,0.533504463004647,6,14,0,-0.628287842755832
"825",8,21,"Female","Line","i",1,0.444549178006127,6,15,0,-0.810694593463763
"826",8,21,"Female","Ole","e",1,0.757547077984782,6,16,0,-0.277669594374964
"827",8,21,"Female","Børn","i",1,0.715672495978652,6,17,0,-0.334532624515419
"828",8,21,"Female","Kontor","e",1,0.74156390799908,6,18,0,-0.298993933661461
"829",8,21,"Female","Forældre","i",1,0.630591122986516,6,19,0,-0.4610976090611
"830",8,21,"Female","Mette","i",1,0.486414215003606,6,20,0,-0.720694723832043
"831",8,21,"Female","Mette","i",1,0.467849516979186,7,3,0,-0.759608579687411
"832",8,21,"Female","Slægtninge","i",1,0.534177959983936,7,4,0,-0.627026237143304
"833",8,21,"Female","Virksomhed","e",1,0.557790115009993,7,5,0,-0.58377252533338
"834",8,21,"Female","Familie","i",1,0.576853512000525,7,6,0,-0.550166923388617
"835",8,21,"Female","Hanne","i",1,0.517787292017601,7,7,0,-0.658190754226195
"836",8,21,"Female","Josefine","i",1,0.464262807014165,7,8,0,-0.767304492669583
"837",8,21,"Female","Ægteskab","i",1,0.479152460990008,7,9,0,-0.73573644204776
"838",8,21,"Female","Bryllup","i",1,0.4892903160071,7,10,0,-0.714799272407337
"839",8,21,"Female","Rasmus","e",1,0.591073149989825,7,11,0,-0.525815495986881
"840",8,21,"Female","Camilla","i",1,0.583585002023028,7,12,0,-0.538565161733253
"841",8,21,"Female","Handel","e",1,0.998166578996461,7,13,0,-0.00183510377696321
"842",8,21,"Female","Ledelse","e",1,0.553269335010555,7,14,0,-0.591910352608227
"843",8,21,"Female","Virksomhed","e",1,0.464536944986321,7,15,0,-0.766714186783894
"844",8,21,"Female","Familie","i",1,0.461276704008924,7,17,0,-0.773757190432948
"845",8,21,"Female","Børn","i",1,0.465120441978797,7,18,0,-0.76545889192521
"846",8,21,"Female","Jens","e",1,0.51994286198169,7,19,0,-0.654036354248444
"847",8,21,"Female","Karriere","e",1,0.660541732009733,7,20,0,-0.414694974563401
"848",8,21,"Female","Løn","e",1,0.665578763000667,7,22,0,-0.407098296533641
"849",8,21,"Female","Kontor","e",1,0.535537012998248,7,23,0,-0.624485272905419
"850",8,21,"Female","Rasmus","e",1,0.685743405018002,7,24,0,-0.377251766391856
"851",8,21,"Female","Akademiker","e",1,0.555225690972293,7,25,0,-0.588380597495041
"852",8,21,"Female","Line","i",1,0.552361011010362,7,26,0,-0.593553441019856
"853",8,21,"Female","Mikkel","e",1,0.622347946977243,7,27,0,-0.474255942364014
"854",8,21,"Female","Sebastian","e",1,0.510151279013371,7,28,0,-0.673047971732002
"855",8,21,"Female","Slægtninge","i",1,0.530636985989986,7,29,0,-0.633677133733504
"856",8,21,"Female","Morten","e",1,0.620319588982966,7,30,0,-0.477520467648457
"857",8,21,"Female","Jens","e",1,1.10338897199836,7,31,0,0.0983863272424956
"858",8,21,"Female","Morten","e",1,0.588976399973035,7,32,0,-0.529369164090788
"859",8,21,"Female","Casper","e",1,0.518672568985494,7,33,0,-0.656482483184576
"860",8,21,"Female","Børn","i",1,0.556096162996255,7,34,0,-0.586814044657316
"861",8,21,"Female","Bryllup","i",1,0.451260345027549,7,36,0,-0.795710844329019
"862",8,21,"Female","Akademiker","e",1,0.635776821000036,7,37,0,-0.452907687602771
"863",8,21,"Female","Line","i",1,0.674995181005215,7,38,0,-0.393049727386625
"864",8,21,"Female","Ledelse","e",1,0.627262574998895,7,39,0,-0.466390046110503
"865",8,21,"Female","Kontor","e",1,0.489117966993945,7,40,0,-0.715151577304857
"866",9,23,"Male","Handel","i",1,1.8184367439826,3,3,1,0.597977200117662
"867",9,23,"Male","Morten","e",1,2.16623169998638,3,4,1,0.772989114227291
"868",9,23,"Male","Børn","e",1,1.40154446597444,3,5,1,0.337574818536055
"869",9,23,"Male","Løn","i",1,1.32635831896914,3,6,1,0.28243708072627
"870",9,23,"Male","Børn","e",1,1.1445460980176,3,7,1,0.13500813746532
"871",9,23,"Male","Rasmus","e",1,2.9939609959838,3,8,1,1.09659725851906
"872",9,23,"Male","Karriere","i",1,0.860196130990516,3,9,1,-0.150594856444852
"873",9,23,"Male","Line","i",1,2.09249442600412,3,10,1,0.738356859580633
"874",9,23,"Male","Hjem","e",1,2.23920216003899,3,11,1,0.806119623866277
"875",9,23,"Male","Birthe","i",1,0.84605036501307,3,12,1,-0.167176388035563
"876",9,23,"Male","Akademiker","i",1,2.21237161499448,3,13,1,0.794065069095171
"877",9,23,"Male","Casper","e",1,1.96188209496904,3,14,1,0.673904265030118
"878",9,23,"Male","Karriere","i",1,1.26474107702961,3,15,1,0.234867419039195
"879",9,23,"Male","Rasmus","e",1,0.737613042001612,3,16,1,-0.304335925223604
"880",9,23,"Male","Ole","e",1,0.680136562965345,3,17,1,-0.385461673084993
"881",9,23,"Male","Hanne","i",1,0.753178350976668,3,18,1,-0.283453225341019
"882",9,23,"Male","Jens","e",1,0.712283303029835,3,19,1,-0.339279549196571
"883",9,23,"Male","Børn","e",1,1.8978815189912,3,20,1,0.640738274103968
"884",9,23,"Male","Ægteskab","e",1,0.969646258978173,4,3,1,-0.0308239554629662
"885",9,23,"Male","Virksomhed","i",1,2.6396690789843,4,4,1,0.970653560431814
"886",9,23,"Male","Camilla","i",1,1.38754897803301,4,5,1,0.327538865498691
"887",9,23,"Male","Josefine","i",1,0.690817166992929,4,6,1,-0.369880082131118
"888",9,23,"Male","Rasmus","e",1,2.74542728799861,4,8,1,1.00993672332074
"889",9,23,"Male","Akademiker","i",1,0.855366125993896,4,9,1,-0.15622568416762
"890",9,23,"Male","Kontor","i",1,1.75248894095421,4,11,1,0.561037029466873
"891",9,23,"Male","Forældre","e",1,0.896186361031141,4,13,1,-0.109606895412334
"892",9,23,"Male","Bryllup","e",1,1.80249034997541,4,14,1,0.589169236473546
"893",9,23,"Male","Mikkel","e",1,0.784765509015415,4,15,1,-0.242370320453875
"894",9,23,"Male","Line","i",1,0.676918871002272,4,16,1,-0.390203849288777
"895",9,23,"Male","Familie","e",1,1.30833541799802,4,17,1,0.268755655939278
"896",9,23,"Male","Slægtninge","e",1,1.02916409895988,4,18,1,0.0287469183451069
"897",9,23,"Male","Casper","e",1,1.4754672239651,4,19,1,0.388974701643525
"898",9,23,"Male","Løn","i",1,1.70028033899143,4,20,1,0.530793142755866
"899",9,23,"Male","Ledelse","i",1,1.14785555005074,4,21,1,0.137895462498495
"900",9,23,"Male","Ole","e",1,0.877087484986987,4,22,1,-0.131148536753908
"901",9,23,"Male","Line","i",1,0.947205737000331,4,23,1,-0.0542389580714019
"902",9,23,"Male","Ruth","i",1,1.08737212501001,4,24,1,0.0837638908692077
"903",9,23,"Male","Hjem","e",1,1.90217526099877,4,25,1,0.642998105513578
"904",9,23,"Male","Kontor","i",1,0.758877195010427,4,26,1,-0.275915313082515
"905",9,23,"Male","Forældre","e",1,1.33413789898623,4,27,1,0.288285314704252
"906",9,23,"Male","Birthe","i",1,0.799191773985513,4,28,1,-0.224154344511685
"907",9,23,"Male","Jens","e",1,0.979496507963631,4,29,1,-0.0207166067252532
"908",9,23,"Male","Ledelse","i",1,0.959223967976868,4,30,1,-0.0416306881155552
"909",9,23,"Male","Morten","e",1,0.886785841954406,4,31,1,-0.120151766687222
"910",9,23,"Male","Bryllup","e",1,0.869455588981509,4,32,1,-0.13988802299425
"911",9,23,"Male","Hjem","e",1,0.88634230097523,4,33,1,-0.120652058772931
"912",9,23,"Male","Sebastian","e",1,0.945085124985781,4,34,1,-0.056480276195263
"913",9,23,"Male","Hanne","i",1,1.30073433800135,4,35,1,0.262928980371098
"914",9,23,"Male","Virksomhed","i",1,0.965020656003617,4,36,1,-0.0356057726871438
"915",9,23,"Male","Sebastian","e",1,2.56250625202665,4,37,1,0.940985784276829
"916",9,23,"Male","Camilla","i",1,2.75158301903866,4,38,1,1.01217638934622
"917",9,23,"Male","Josefine","i",1,0.759999170957599,4,39,1,-0.27443793654762
"918",9,23,"Male","Jens","e",1,0.709888699988369,4,40,1,-0.342647081814762
"919",9,23,"Male","Handel","e",1,0.96371097600786,6,3,0,-0.0369638467450517
"920",9,23,"Male","Morten","e",1,0.821710795979016,6,4,0,-0.196366775541777
"921",9,23,"Male","Børn","i",1,1.12863161897985,6,5,0,0.121005942268781
"922",9,23,"Male","Løn","e",1,2.08845656597987,6,6,0,0.736425307985123
"923",9,23,"Male","Børn","i",1,1.65102615498472,6,7,0,0.501397006717246
"924",9,23,"Male","Rasmus","e",1,1.34602869296214,6,8,0,0.297158548203452
"925",9,23,"Male","Karriere","e",1,1.97357507899869,6,9,0,0.679846658973864
"926",9,23,"Male","Line","i",1,0.797709327016491,6,10,0,-0.226010999747184
"927",9,23,"Male","Hjem","i",1,1.05473567399895,6,11,0,0.0532901895635832
"928",9,23,"Male","Birthe","i",1,1.0303202860523,6,12,0,0.029869711236665
"929",9,23,"Male","Akademiker","e",1,2.37466899096034,6,13,0,0.86485805554617
"930",9,23,"Male","Casper","e",1,1.22065790201304,6,14,0,0.199389977339735
"931",9,23,"Male","Karriere","e",1,2.39186045801034,6,15,0,0.872071497434521
"932",9,23,"Male","Rasmus","e",1,0.835151862003841,6,16,0,-0.180141700004464
"933",9,23,"Male","Ole","e",1,0.808816793025471,6,17,0,-0.212182848601373
"934",9,23,"Male","Hanne","i",1,0.800240407988895,6,18,0,-0.222843086472173
"935",9,23,"Male","Jens","e",1,1.90038253599778,6,19,0,0.64205520064295
"936",9,23,"Male","Ægteskab","i",1,0.896293567027897,7,3,0,-0.109487277897845
"937",9,23,"Male","Virksomhed","e",1,1.1919362640474,7,4,0,0.175579097454706
"938",9,23,"Male","Camilla","i",1,0.829355799010955,7,5,0,-0.187106025318497
"939",9,23,"Male","Karriere","e",1,0.968891038966831,7,7,0,-0.0316031203006515
"940",9,23,"Male","Rasmus","e",1,0.74370261101285,7,8,0,-0.29611404043751
"941",9,23,"Male","Akademiker","e",1,0.871521421009675,7,9,0,-0.137514834852331
"942",9,23,"Male","Hanne","i",1,0.717119605047628,7,10,0,-0.332512639117679
"943",9,23,"Male","Kontor","e",1,1.44745404605055,7,11,0,0.369806182845728
"944",9,23,"Male","Slægtninge","i",1,1.03806724300375,7,12,0,0.0373605639593049
"945",9,23,"Male","Forældre","i",1,0.647476580983493,7,13,0,-0.434672654427796
"946",9,23,"Male","Bryllup","i",1,0.95486748800613,7,14,0,-0.0461827041434369
"947",9,23,"Male","Mikkel","e",1,0.692524877027608,7,15,0,-0.367411118060305
"948",9,23,"Male","Line","i",1,0.701309910044074,7,16,0,-0.35480539257651
"949",9,23,"Male","Familie","i",1,2.44050644902745,7,17,0,0.892205578844115
"950",9,23,"Male","Casper","e",1,0.767180956027005,7,19,0,-0.26503257841781
"951",9,23,"Male","Ledelse","e",1,1.80816448200494,7,21,0,0.592312232392305
"952",9,23,"Male","Ole","e",1,1.74444681900786,7,22,0,0.556437496231815
"953",9,23,"Male","Line","i",1,1.74534439796116,7,23,0,0.556951898909389
"954",9,23,"Male","Hjem","i",1,2.35942572698696,7,25,0,0.858418253404029
"955",9,23,"Male","Forældre","i",1,0.99950145999901,7,27,0,-0.000498664313374508
"956",9,23,"Male","Birthe","i",1,0.866917006031144,7,28,0,-0.142812032237843
"957",9,23,"Male","Jens","e",1,1.05252721102443,7,29,0,0.0511941399451159
"958",9,23,"Male","Ledelse","e",1,2.43972784501966,7,30,0,0.891886494157813
"959",9,23,"Male","Morten","e",1,0.689814337005373,7,31,0,-0.371332794402297
"960",9,23,"Male","Bryllup","i",1,0.926286862988491,7,32,0,-0.0765713050655282
"961",9,23,"Male","Hjem","i",1,1.42304131295532,7,33,0,0.35279635098096
"962",9,23,"Male","Sebastian","e",1,0.723402766045183,7,34,0,-0.323789135798263
"963",9,23,"Male","Hanne","i",1,0.797900021017995,7,35,0,-0.225771976326262
"964",9,23,"Male","Virksomhed","e",1,0.923698126978707,7,36,0,-0.0793699631233068
"965",9,23,"Male","Sebastian","e",1,0.817210681037977,7,37,0,-0.20185834583777
"966",9,23,"Male","Camilla","i",1,0.767680899996776,7,38,0,-0.264381126972209
"967",9,23,"Male","Josefine","i",1,0.640860545972828,7,39,0,-0.444943402715089
"968",9,23,"Male","Jens","e",1,1.05169138399651,7,40,0,0.050399710056653
"969",10,26,"Female","Hanne","i",1,2.3749644117197,3,3,1,0.864982452835262
"970",10,26,"Female","Birthe","i",1,0.691099939023843,3,4,1,-0.369470836115377
"971",10,26,"Female","Karriere","i",1,0.848695572232828,3,5,1,-0.164054729137085
"972",10,26,"Female","Handel","i",1,0.748146508616628,3,6,1,-0.290156453052593
"973",10,26,"Female","Sebastian","e",1,0.895257096912246,3,7,1,-0.110644342838455
"974",10,26,"Female","Karriere","i",1,0.758025994844502,3,8,1,-0.277037599937683
"975",10,26,"Female","Hjem","e",1,0.730551393062342,3,9,1,-0.313955696997965
"976",10,26,"Female","Akademiker","i",1,1.28190829959931,3,10,1,0.248349826766439
"977",10,26,"Female","Line","i",1,0.793637930357363,3,11,1,-0.231127928844456
"978",10,26,"Female","Camilla","i",1,1.2111520965118,3,13,1,0.191572052482809
"979",10,26,"Female","Løn","i",1,1.21724427532172,3,14,1,0.196589513109432
"980",10,26,"Female","Virksomhed","i",1,0.679418056795839,3,15,1,-0.386518646046512
"981",10,26,"Female","Ledelse","i",1,0.722179332835367,3,16,1,-0.325481787502882
"982",10,26,"Female","Mikkel","e",1,0.929394182516262,3,17,1,-0.0732223217480281
"983",10,26,"Female","Morten","e",1,0.734810384718003,3,18,1,-0.308142793027365
"984",10,26,"Female","Ole","e",1,0.554234314156929,3,19,1,-0.590167731911134
"985",10,26,"Female","Forældre","e",1,0.809417262469651,3,20,1,-0.211440719278732
"986",10,26,"Female","Familie","e",1,0.600803871289827,4,3,1,-0.509486734994671
"987",10,26,"Female","Sebastian","e",1,0.57926704644342,4,4,1,-0.545991687628911
"988",10,26,"Female","Josefine","i",1,0.562933027977124,4,5,1,-0.574594613553889
"989",10,26,"Female","Birthe","i",1,0.581749524542829,4,6,1,-0.541715294087858
"990",10,26,"Female","Forældre","e",1,0.671502062119544,4,7,1,-0.39823819210838
"991",10,26,"Female","Casper","e",1,0.700057922978885,4,8,1,-0.356592200249392
"992",10,26,"Female","Ægteskab","e",1,0.917727472726256,4,9,1,-0.0858548031050336
"993",10,26,"Female","Rasmus","e",1,0.545361563563347,4,10,1,-0.606306284901963
"994",10,26,"Female","Ruth","i",1,0.546220591117162,4,11,1,-0.604732371793427
"995",10,26,"Female","Camilla","i",1,0.49359455506783,4,12,1,-0.706040837513735
"996",10,26,"Female","Karriere","i",1,0.519829033437418,4,13,1,-0.654255303318386
"997",10,26,"Female","Sebastian","e",1,0.628140582412016,4,14,1,-0.464991280222281
"998",10,26,"Female","Bryllup","e",1,0.679916962166317,4,15,1,-0.385784602729861
"999",10,26,"Female","Løn","i",1,1.65161858641659,4,16,1,0.501755768548815
"1000",10,26,"Female","Line","i",1,0.553236503445078,4,17,1,-0.591969695386811
"1001",10,26,"Female","Karriere","i",1,0.599904681410408,4,18,1,-0.51098450070225
"1002",10,26,"Female","Hjem","e",1,0.5784521974565,4,19,1,-0.547399367644199
"1003",10,26,"Female","Handel","i",1,0.642139384697657,4,20,1,-0.442949888736206
"1004",10,26,"Female","Ægteskab","e",1,1.01859024877194,4,21,1,0.0184195622553962
"1005",10,26,"Female","Mikkel","e",1,0.55681228931644,4,22,1,-0.585527098875682
"1006",10,26,"Female","Line","i",1,0.639585506927688,4,24,1,-0.446934957866801
"1007",10,26,"Female","Ruth","i",1,0.517615642951569,4,25,1,-0.658522314166404
"1008",10,26,"Female","Forældre","e",1,0.889613397448556,4,26,1,-0.11696829551766
"1009",10,26,"Female","Birthe","i",1,0.653280414262554,4,27,1,-0.42574881728397
"1010",10,26,"Female","Hanne","i",1,0.664134506310802,4,29,1,-0.409270580275
"1011",10,26,"Female","Ledelse","i",1,0.511164680705406,4,30,1,-0.671063469257568
"1012",10,26,"Female","Slægtninge","e",1,0.637280635593925,4,31,1,-0.450545162195037
"1013",10,26,"Female","Rasmus","e",1,0.5112793664739,4,32,1,-0.670839132739024
"1014",10,26,"Female","Mikkel","e",1,0.4558325962862,4,33,1,-0.785629650277831
"1015",10,26,"Female","Jens","e",1,0.462573173514102,4,34,1,-0.770950521540551
"1016",10,26,"Female","Slægtninge","e",1,0.58489646599628,4,35,1,-0.536320428616241
"1017",10,26,"Female","Handel","i",1,0.716750278661493,4,36,1,-0.33302778543395
"1018",10,26,"Female","Akademiker","i",1,0.548084123118315,4,37,1,-0.601326494475484
"1019",10,26,"Female","Løn","i",1,0.540386790002231,4,38,1,-0.615470118046408
"1020",10,26,"Female","Mette","i",1,0.507798185193678,4,39,1,-0.677671183578366
"1021",10,26,"Female","Camilla","i",1,0.484096610918641,4,40,1,-0.725470782848763
"1022",10,26,"Female","Hanne","i",1,0.716605248075211,6,3,0,-0.333230150561194
"1023",10,26,"Female","Birthe","i",1,0.518816942785634,6,4,0,-0.656204169429239
"1024",10,26,"Female","Karriere","e",1,1.44387984147761,6,5,0,0.367333824735178
"1025",10,26,"Female","Handel","e",1,0.575348542071879,6,6,0,-0.552779261700622
"1026",10,26,"Female","Sebastian","e",1,0.518172114301706,6,7,0,-0.657447824919396
"1027",10,26,"Female","Karriere","e",1,0.509184231719701,6,8,0,-0.67494537955036
"1028",10,26,"Female","Hjem","i",1,0.638272198848426,6,9,0,-0.448990442660954
"1029",10,26,"Female","Akademiker","e",1,0.775878149288474,6,10,0,-0.253759795241287
"1030",10,26,"Female","Line","i",1,0.620080895867432,6,11,0,-0.477905332248875
"1031",10,26,"Female","Ægteskab","i",1,0.660492229479132,6,12,0,-0.414769919692848
"1032",10,26,"Female","Camilla","i",1,0.572255150356796,6,13,0,-0.558170320003338
"1033",10,26,"Female","Løn","e",1,0.945991041109664,6,14,0,-0.0555221802608693
"1034",10,26,"Female","Virksomhed","e",1,0.690739370591473,6,15,0,-0.369992703510586
"1035",10,26,"Female","Ledelse","e",1,0.850814804376569,6,16,0,-0.161560795270808
"1036",10,26,"Female","Mikkel","e",1,0.577356658410281,6,17,0,-0.549295077940492
"1037",10,26,"Female","Morten","e",1,0.444798220007215,6,18,0,-0.810134537836113
"1038",10,26,"Female","Ole","e",1,0.409408069768688,6,19,0,-0.893042894740887
"1039",10,26,"Female","Forældre","i",1,0.568606626067776,6,20,0,-0.564566426530681
"1040",10,26,"Female","Familie","i",1,0.782004689157475,7,3,0,-0.245894542089747
"1041",10,26,"Female","Sebastian","e",1,0.561523330310592,7,4,0,-0.577101955692475
"1042",10,26,"Female","Birthe","i",1,0.637151669914601,7,6,0,-0.450747551414466
"1043",10,26,"Female","Forældre","i",1,0.638197229156503,7,7,0,-0.449107906801284
"1044",10,26,"Female","Casper","e",1,0.512646224349737,7,8,0,-0.668169292860022
"1045",10,26,"Female","Ægteskab","i",1,0.647258742683334,7,9,0,-0.435009153012847
"1046",10,26,"Female","Rasmus","e",1,0.644062713923631,7,10,0,-0.439959175750097
"1047",10,26,"Female","Ruth","i",1,0.594208770926343,7,11,0,-0.520524555163306
"1048",10,26,"Female","Camilla","i",1,0.61081455447129,7,12,0,-0.492961877383097
"1049",10,26,"Female","Karriere","e",1,0.581376014888519,7,13,0,-0.542357545770048
"1050",10,26,"Female","Sebastian","e",1,0.98377709730994,7,14,0,-0.0163559347150731
"1051",10,26,"Female","Bryllup","i",1,1.13108938973164,7,15,0,0.123181230024632
"1052",10,26,"Female","Løn","e",1,1.16517114060116,7,16,0,0.152867978032221
"1053",10,26,"Female","Line","i",1,0.599816324276617,7,17,0,-0.511131796837821
"1054",10,26,"Female","Karriere","e",1,0.625350193178747,7,18,0,-0.469443477074265
"1055",10,26,"Female","Hjem","i",1,0.867510730022332,7,19,0,-0.142127398335794
"1056",10,26,"Female","Handel","e",1,0.771732058376074,7,20,0,-0.259117863844096
"1057",10,26,"Female","Ægteskab","i",1,0.757830984453904,7,21,0,-0.277294893857013
"1058",10,26,"Female","Mikkel","e",1,0.693414627836319,7,22,0,-0.366127150141327
"1059",10,26,"Female","Hjem","i",1,0.830474370653974,7,23,0,-0.185758210544678
"1060",10,26,"Female","Line","i",1,0.567354453960434,7,24,0,-0.566771031312512
"1061",10,26,"Female","Ruth","i",1,0.436581900372403,7,25,0,-0.828779291583599
"1062",10,26,"Female","Forældre","i",1,0.562681344046723,7,26,0,-0.575041807443467
"1063",10,26,"Female","Birthe","i",1,0.531773755792528,7,27,0,-0.631537151160554
"1064",10,26,"Female","Ledelse","e",1,0.586560078809271,7,28,0,-0.533480179972393
"1065",10,26,"Female","Hanne","i",1,0.603282333118841,7,29,0,-0.505369977705552
"1066",10,26,"Female","Ledelse","e",1,0.848280115256784,7,30,0,-0.164544373140127
"1067",10,26,"Female","Slægtninge","i",1,1.30386504385388,7,31,0,0.2653329641715
"1068",10,26,"Female","Rasmus","e",1,0.642566890368471,7,32,0,-0.442284358108871
"1069",10,26,"Female","Mikkel","e",1,0.436787174461642,7,33,0,-0.828309217478769
"1070",10,26,"Female","Jens","e",1,0.424525169713888,7,34,0,-0.85678398237625
"1071",10,26,"Female","Slægtninge","i",1,0.603392556426115,7,35,0,-0.505187288385445
"1072",10,26,"Female","Handel","e",1,0.536229989113053,7,36,0,-0.623192125775477
"1073",10,26,"Female","Akademiker","e",1,0.646393913892098,7,37,0,-0.436346187209277
"1074",10,26,"Female","Løn","e",1,0.460150046448689,7,38,0,-0.776202654754782
"1075",10,26,"Female","Mette","i",1,0.629782775358763,7,39,0,-0.462380320071935
"1076",10,26,"Female","Camilla","i",1,0.458831383381039,7,40,0,-0.779072492881834
"1077",11,23,"Male","Jens","e",1,1.14226269999926,3,3,1,0.133011119805444
"1078",11,23,"Male","Børn","e",1,0.782651400000759,3,4,1,-0.245067892854055
"1079",11,23,"Male","Ægteskab","e",1,1.51474330000201,3,5,1,0.415245985662366
"1080",11,23,"Male","Bryllup","e",1,0.759475400001975,3,6,1,-0.275127347198354
"1081",11,23,"Male","Hjem","e",1,0.83362599999964,3,7,1,-0.181970418450671
"1082",11,23,"Male","Kontor","i",1,0.831687199999578,3,8,1,-0.184298870391155
"1083",11,23,"Male","Handel","i",1,0.700820199999725,3,9,1,-0.355503915574843
"1084",11,23,"Male","Morten","e",1,0.665339000002859,3,10,1,-0.407458593776741
"1085",11,23,"Male","Ledelse","i",1,0.906598900000972,3,11,1,-0.098055153799561
"1086",11,23,"Male","Line","i",1,0.767262299999857,3,12,1,-0.264926554330431
"1087",11,23,"Male","Familie","e",1,0.64323929999955,3,13,1,-0.441238462238386
"1088",11,23,"Male","Ægteskab","e",1,2.06929730000047,3,14,1,0.727209081045963
"1089",11,23,"Male","Ruth","i",1,0.758407000001171,3,15,1,-0.276535098124571
"1090",11,23,"Male","Sebastian","e",1,0.801806399998895,3,16,1,-0.220888096766555
"1091",11,23,"Male","Mette","i",1,1.06229209999947,3,17,1,0.0604289320817112
"1092",11,23,"Male","Ruth","i",1,0.834454300002108,3,18,1,-0.180977300708624
"1093",11,23,"Male","Familie","e",1,0.648391899998387,3,19,1,-0.433259981489844
"1094",11,23,"Male","Mikkel","e",1,0.95237040000211,3,20,1,-0.0488012442286003
"1095",11,23,"Male","Børn","e",1,0.973139599998831,4,3,1,-0.027227733296319
"1096",11,23,"Male","Mikkel","e",1,0.794985700002144,4,4,1,-0.229431151908268
"1097",11,23,"Male","Ruth","i",1,0.722339199997805,4,5,1,-0.325260444322497
"1098",11,23,"Male","Handel","i",1,0.784208999997645,4,6,1,-0.243079712528649
"1099",11,23,"Male","Børn","e",1,0.855026500001259,4,7,1,-0.156622816372167
"1100",11,23,"Male","Karriere","i",1,0.872553599998355,4,8,1,-0.136331194129593
"1101",11,23,"Male","Rasmus","e",1,0.772903299999598,4,9,1,-0.2576013352451
"1102",11,23,"Male","Bryllup","e",1,0.870886299999256,4,10,1,-0.138243850261169
"1103",11,23,"Male","Handel","i",1,0.708199100001366,4,11,1,-0.345030010130662
"1104",11,23,"Male","Løn","i",1,0.707601899997826,4,12,1,-0.345873631570341
"1105",11,23,"Male","Ægteskab","e",1,0.799245899997914,4,13,1,-0.22408662086715
"1106",11,23,"Male","Slægtninge","e",1,1.30040990000271,4,14,1,0.262679522462855
"1107",11,23,"Male","Morten","e",1,0.775525000000926,4,15,1,-0.25421505961768
"1108",11,23,"Male","Ægteskab","e",1,0.817571899999166,4,16,1,-0.201416429008881
"1109",11,23,"Male","Josefine","i",1,0.66704849999951,4,17,1,-0.404892522067579
"1110",11,23,"Male","Hanne","i",1,0.760062599998491,4,18,1,-0.274354480674785
"1111",11,23,"Male","Rasmus","e",1,0.678420999996888,4,19,1,-0.387987239799454
"1112",11,23,"Male","Forældre","e",1,0.923789899999974,4,20,1,-0.0792706141478298
"1113",11,23,"Male","Birthe","i",1,0.718414299997676,4,21,1,-0.33070885685028
"1114",11,23,"Male","Akademiker","i",1,0.729064600000129,4,22,1,-0.315992936358872
"1115",11,23,"Male","Birthe","i",1,0.696968499996728,4,23,1,-0.361015062934804
"1116",11,23,"Male","Ledelse","i",1,0.76104850000047,4,24,1,-0.273058191218958
"1117",11,23,"Male","Kontor","i",1,0.770974200000637,4,25,1,-0.2601003690129
"1118",11,23,"Male","Mette","i",1,0.875588699997024,4,26,1,-0.132858818856376
"1119",11,23,"Male","Ole","e",1,0.695709899999201,4,27,1,-0.36282251588327
"1120",11,23,"Male","Akademiker","i",1,0.831111499999679,4,28,1,-0.184991317435891
"1121",11,23,"Male","Casper","e",1,0.712163900003361,4,29,1,-0.339447197427407
"1122",11,23,"Male","Mette","i",1,0.753376799999387,4,30,1,-0.283189777934215
"1123",11,23,"Male","Virksomhed","i",1,0.758465499999147,4,31,1,-0.276457965738025
"1124",11,23,"Male","Line","i",1,0.661008500002936,4,32,1,-0.413988579904605
"1125",11,23,"Male","Jens","e",1,0.644659199999296,4,33,1,-0.439033473918203
"1126",11,23,"Male","Familie","e",1,0.660021899999265,4,34,1,-0.415482262695102
"1127",11,23,"Male","Forældre","e",1,0.660972499998024,4,35,1,-0.414043043629757
"1128",11,23,"Male","Josefine","i",1,1.24618249999912,4,37,1,0.220084878338904
"1129",11,23,"Male","Løn","i",1,0.784453799999028,4,38,1,-0.242767599557817
"1130",11,23,"Male","Jens","e",1,0.791349800001626,4,39,1,-0.234015183933494
"1131",11,23,"Male","Jens","e",1,0.985438499999873,6,3,0,-0.0146685592073802
"1132",11,23,"Male","Ægteskab","i",1,1.17179879999821,6,5,0,0.158540004060963
"1133",11,23,"Male","Bryllup","i",1,0.729290999999648,6,6,0,-0.315682449669154
"1134",11,23,"Male","Hjem","i",1,0.932072800002061,6,7,0,-0.0703443557569032
"1135",11,23,"Male","Kontor","e",1,1.00995329999932,6,8,0,0.00990409215974486
"1136",11,23,"Male","Handel","e",1,0.658786199997849,6,9,0,-0.417356228077998
"1137",11,23,"Male","Morten","e",1,0.774733400001423,6,10,0,-0.255236308808525
"1138",11,23,"Male","Ledelse","e",1,1.0689762999973,6,11,0,0.0667014615420487
"1139",11,23,"Male","Line","i",1,0.680223800001841,6,12,0,-0.385333417309553
"1140",11,23,"Male","Familie","i",1,0.687978500001918,6,13,0,-0.373997691534297
"1141",11,23,"Male","Ægteskab","i",1,0.629797500001587,6,14,0,-0.462356939834703
"1142",11,23,"Male","Ruth","i",1,1.12151050000102,6,15,0,0.1146764373962
"1143",11,23,"Male","Sebastian","e",1,0.683917999998812,6,16,0,-0.379917251588806
"1144",11,23,"Male","Mette","i",1,0.632274499999767,6,17,0,-0.458431643688946
"1145",11,23,"Male","Ruth","i",1,0.6819445000001,6,18,0,-0.382807002749043
"1146",11,23,"Male","Familie","i",1,0.806730100001005,6,19,0,-0.21476611522631
"1147",11,23,"Male","Mikkel","e",1,0.596876300001895,6,20,0,-0.516045389735868
"1148",11,23,"Male","Børn","i",1,0.654910699999164,7,3,0,-0.423256388520605
"1149",11,23,"Male","Mikkel","e",1,0.77409180000177,7,4,0,-0.256064807771936
"1150",11,23,"Male","Ruth","i",1,0.710510999997496,7,5,0,-0.341770849513461
"1151",11,23,"Male","Handel","e",1,1.02675459999955,7,6,0,0.0264029539998874
"1152",11,23,"Male","Børn","i",1,0.549178299999767,7,7,0,-0.599332117886846
"1153",11,23,"Male","Karriere","e",1,0.81403710000086,7,8,0,-0.205749336621581
"1154",11,23,"Male","Rasmus","e",1,0.638398099999904,7,9,0,-0.448793209041594
"1155",11,23,"Male","Bryllup","i",1,0.658621399998083,7,10,0,-0.417606416403351
"1156",11,23,"Male","Handel","e",1,0.642701200002193,7,11,0,-0.442075359480153
"1157",11,23,"Male","Løn","e",1,0.728789400000096,7,12,0,-0.316370477598669
"1158",11,23,"Male","Ægteskab","i",1,0.992315699997562,7,13,0,-0.00771397636148597
"1159",11,23,"Male","Slægtninge","i",1,0.924325699998008,7,14,0,-0.0786907802748344
"1160",11,23,"Male","Morten","e",1,0.586555900001258,7,15,0,-0.533487304260337
"1161",11,23,"Male","Ægteskab","i",1,1.08450649999941,7,16,0,0.0811250448116962
"1162",11,23,"Male","Josefine","i",1,0.792047099999763,7,17,0,-0.233134419239293
"1163",11,23,"Male","Hanne","i",1,0.655445199998212,7,18,0,-0.422440579580921
"1164",11,23,"Male","Rasmus","e",1,0.693150900002365,7,19,0,-0.366507554574927
"1165",11,23,"Male","Forældre","i",1,1.15048460000253,7,20,0,0.140183244921323
"1166",11,23,"Male","Birthe","i",1,0.693419899998844,7,21,0,-0.366119546981152
"1167",11,23,"Male","Akademiker","e",1,0.686779399999068,7,22,0,-0.375742144585896
"1168",11,23,"Male","Birthe","i",1,0.719737399998849,7,23,0,-0.328868855723184
"1169",11,23,"Male","Ledelse","e",1,0.814155400003074,7,24,0,-0.205604022105734
"1170",11,23,"Male","Kontor","e",1,0.792843100000027,7,25,0,-0.232129933165502
"1171",11,23,"Male","Mette","i",1,0.620710499999404,7,26,0,-0.476890489321843
"1172",11,23,"Male","Ole","e",1,0.683776800000487,7,27,0,-0.38012373040093
"1173",11,23,"Male","Akademiker","e",1,0.686265999996976,7,28,0,-0.376489971316198
"1174",11,23,"Male","Casper","e",1,0.663524600000528,7,29,0,-0.410189349784851
"1175",11,23,"Male","Mette","i",1,0.637417800000549,7,30,0,-0.450329951438794
"1176",11,23,"Male","Virksomhed","e",1,0.781074800001079,7,31,0,-0.247084359079281
"1177",11,23,"Male","Line","i",1,0.638819499999954,7,32,0,-0.448133337121036
"1178",11,23,"Male","Jens","e",1,0.650371499999892,7,33,0,-0.430211540896983
"1179",11,23,"Male","Familie","i",1,0.646074299998872,7,34,0,-0.436840766335177
"1180",11,23,"Male","Forældre","i",1,0.631439799999498,7,35,0,-0.459752670319184
"1181",11,23,"Male","Hjem","i",1,0.597277799999574,7,36,0,-0.515372947187946
"1182",11,23,"Male","Josefine","i",1,0.625387000000046,7,37,0,-0.469384620870883
"1183",11,23,"Male","Løn","e",1,0.707819799998106,7,38,0,-0.345565737460759
"1184",11,23,"Male","Jens","e",1,0.658274499997788,7,39,0,-0.418133261400469
"1185",11,23,"Male","Karriere","e",1,0.714454099997965,7,40,0,-0.336236524406368
"1186",12,24,"Female","Virksomhed","i",1,0.773191529413452,3,3,1,-0.257228486941477
"1187",12,24,"Female","Jens","e",1,0.861372966581257,3,4,1,-0.149227689973629
"1188",12,24,"Female","Mikkel","e",1,0.520758710947121,3,5,1,-0.652468471286059
"1189",12,24,"Female","Kontor","i",1,1.00081250746734,3,6,1,0.000812177561840521
"1190",12,24,"Female","Løn","i",1,0.990243068023119,3,7,1,-0.00980484273372749
"1191",12,24,"Female","Kontor","i",1,0.584317750297487,3,8,1,-0.537310351143676
"1192",12,24,"Female","Børn","e",1,0.999460323975654,3,10,1,-0.000539821701866109
"1193",12,24,"Female","Rasmus","e",1,0.991713278926909,3,11,1,-0.00832124681525991
"1194",12,24,"Female","Handel","i",1,0.80680624692468,3,12,1,-0.214671730090361
"1195",12,24,"Female","Børn","e",1,1.10341509725549,3,13,1,0.0984100042489879
"1196",12,24,"Female","Forældre","e",1,0.884608114807634,3,14,1,-0.122610540169645
"1197",12,24,"Female","Sebastian","e",1,1.04029267374426,3,15,1,0.0395020906247171
"1198",12,24,"Female","Slægtninge","e",1,1.13864798756549,3,16,1,0.129841582760802
"1199",12,24,"Female","Casper","e",1,0.820709105202695,3,17,1,-0.197586549973147
"1200",12,24,"Female","Hanne","i",1,0.624242229852825,3,18,1,-0.471216797071807
"1201",12,24,"Female","Handel","i",1,0.633800311305095,3,19,1,-0.456021340552994
"1202",12,24,"Female","Hanne","i",1,0.537327021447709,4,3,1,-0.621148391338071
"1203",12,24,"Female","Casper","e",1,0.879750602965942,4,5,1,-0.128116817397396
"1204",12,24,"Female","Camilla","i",1,0.591819760185899,4,6,1,-0.524553149600667
"1205",12,24,"Female","Mikkel","e",1,0.4796022134542,4,7,1,-0.734798240630504
"1206",12,24,"Female","Handel","i",1,0.543386189063312,4,8,1,-0.609934998096254
"1207",12,24,"Female","Slægtninge","e",1,0.608215305925114,4,9,1,-0.497226338114862
"1208",12,24,"Female","Camilla","i",1,0.709868544829078,4,10,1,-0.342675474216866
"1209",12,24,"Female","Ruth","i",1,0.587853868404636,4,11,1,-0.531276885091866
"1210",12,24,"Female","Sebastian","e",1,0.464519081084291,4,12,1,-0.766752642811371
"1211",12,24,"Female","Jens","e",1,0.523889858217444,4,13,1,-0.646473810996519
"1212",12,24,"Female","Løn","i",1,0.579962282557972,4,14,1,-0.544792207628681
"1213",12,24,"Female","Kontor","i",1,0.465278989431681,4,15,1,-0.765118076036753
"1214",12,24,"Female","Mette","i",1,0.65766921537579,4,16,1,-0.419053186253807
"1215",12,24,"Female","Handel","i",1,0.430455346300732,4,17,1,-0.842911685695733
"1216",12,24,"Female","Hjem","e",1,0.599639503256185,4,18,1,-0.511426632241767
"1217",12,24,"Female","Forældre","e",1,0.655693966924446,4,19,1,-0.422061112724169
"1218",12,24,"Female","Ruth","i",1,1.243879252841,4,21,1,0.21823492597337
"1219",12,24,"Female","Kontor","i",1,0.593208720354596,4,22,1,-0.522208968296074
"1220",12,24,"Female","Jens","e",1,0.591866800095886,4,23,1,-0.524473669252423
"1221",12,24,"Female","Birthe","i",1,0.996115786576411,4,24,1,-0.0038917765714887
"1222",12,24,"Female","Hanne","i",1,0.449874275160255,4,25,1,-0.798787123786786
"1223",12,24,"Female","Line","i",1,0.343596585764317,4,26,1,-1.06828702557939
"1224",12,24,"Female","Sebastian","e",1,0.479848103888799,4,27,1,-0.73428567539281
"1225",12,24,"Female","Virksomhed","i",1,1.25053753785323,4,30,1,0.223573489160274
"1226",12,24,"Female","Karriere","i",1,1.26445835683262,4,33,1,0.234643854068885
"1227",12,24,"Female","Morten","e",1,0.598026034451323,4,34,1,-0.514120990107387
"1228",12,24,"Female","Casper","e",1,1.29742264072411,4,36,1,0.260379712487862
"1229",12,24,"Female","Bryllup","e",1,1.44686072767945,4,37,1,0.369396194004985
"1230",12,24,"Female","Ledelse","i",1,0.616498605901143,4,38,1,-0.48369921769231
"1231",12,24,"Female","Akademiker","i",1,0.517882434447529,4,39,1,-0.658007023008098
"1232",12,24,"Female","Line","i",1,0.72879269940313,4,40,1,-0.316365950370961
"1233",12,24,"Female","Virksomhed","e",1,1.25002907923772,6,3,0,0.223166814433797
"1234",12,24,"Female","Jens","e",1,0.682154342212016,6,4,0,-0.382499338513757
"1235",12,24,"Female","Mikkel","e",1,0.440334582031937,6,5,0,-0.820220427328905
"1236",12,24,"Female","Kontor","e",1,0.640293528995244,6,6,0,-0.445828568716095
"1237",12,24,"Female","Løn","e",1,0.686568823643029,6,7,0,-0.376048805859511
"1238",12,24,"Female","Kontor","e",1,0.522615931986365,6,8,0,-0.648908440355022
"1239",12,24,"Female","Ægteskab","i",1,1.08239424572093,6,9,0,0.0791754816379654
"1240",12,24,"Female","Børn","i",1,0.506974307645578,6,10,0,-0.679294951930258
"1241",12,24,"Female","Rasmus","e",1,0.60595439694589,6,11,0,-0.500950548308977
"1242",12,24,"Female","Børn","i",1,1.17193812970072,6,13,0,0.158658899403614
"1243",12,24,"Female","Forældre","i",1,0.959738116012886,6,14,0,-0.0410948275557134
"1244",12,24,"Female","Sebastian","e",1,0.454733925173059,6,15,0,-0.788042810921035
"1245",12,24,"Female","Slægtninge","i",1,0.622748071386013,6,16,0,-0.473613221775974
"1246",12,24,"Female","Casper","e",1,0.496470724057872,6,17,0,-0.700230761872106
"1247",12,24,"Female","Hanne","i",1,0.546566086792154,6,18,0,-0.604100051335121
"1248",12,24,"Female","Handel","e",1,0.595128803834086,6,19,0,-0.518977419832201
"1249",12,24,"Female","Mette","i",1,0.512205572944367,6,20,0,-0.669029224869095
"1250",12,24,"Female","Hanne","i",1,0.698499426973285,7,3,0,-0.35882092065298
"1251",12,24,"Female","Familie","i",1,1.58839525494841,7,4,0,0.462724232955217
"1252",12,24,"Female","Casper","e",1,0.750059013691498,7,5,0,-0.28760339062528
"1253",12,24,"Female","Camilla","i",1,0.657206941395998,7,6,0,-0.419756330799334
"1254",12,24,"Female","Mikkel","e",1,0.417869605356827,7,7,0,-0.872585844030674
"1255",12,24,"Female","Handel","e",1,0.681331143860007,7,8,0,-0.383706829844525
"1256",12,24,"Female","Slægtninge","i",1,0.632809052185621,7,9,0,-0.457586557660052
"1257",12,24,"Female","Camilla","i",1,0.574352132185595,7,10,0,-0.554512600052189
"1258",12,24,"Female","Ruth","i",1,0.464592634380097,7,11,0,-0.766594312451877
"1259",12,24,"Female","Sebastian","e",1,0.459506765182596,7,12,0,-0.777601614372914
"1260",12,24,"Female","Løn","e",1,1.04852765091346,7,14,0,0.0473869428895082
"1261",12,24,"Female","Kontor","e",1,0.555729888292262,7,15,0,-0.587472915200632
"1262",12,24,"Female","Mette","i",1,0.439707668352639,7,16,0,-0.821645162982382
"1263",12,24,"Female","Handel","e",1,0.618278852547519,7,17,0,-0.480815705578115
"1264",12,24,"Female","Hjem","i",1,0.779516258684453,7,18,0,-0.249081732864172
"1265",12,24,"Female","Forældre","i",1,0.507139374967664,7,19,0,-0.678969411852505
"1266",12,24,"Female","Karriere","e",1,0.62427558543277,7,20,0,-0.47116336478667
"1267",12,24,"Female","Ruth","i",1,0.516969432617771,7,21,0,-0.659771530752056
"1268",12,24,"Female","Kontor","e",1,1.09948298864765,7,22,0,0.0948400589945348
"1269",12,24,"Female","Jens","e",1,0.816520415304694,7,23,0,-0.202703363449177
"1270",12,24,"Female","Birthe","i",1,0.51388147653779,7,24,0,-0.665762630510429
"1271",12,24,"Female","Hanne","i",1,0.390301226434531,7,25,0,-0.940836462513724
"1272",12,24,"Female","Line","i",1,0.378370623133378,7,26,0,-0.971881079243655
"1273",12,24,"Female","Sebastian","e",1,0.413274661754258,7,27,0,-0.883642866495376
"1274",12,24,"Female","Josefine","i",1,0.647318297647871,7,29,0,-0.434917146183244
"1275",12,24,"Female","Virksomhed","e",1,0.705221002019243,7,30,0,-0.349244047252364
"1276",12,24,"Female","Morten","e",1,0.703808094287524,7,34,0,-0.351249553325998
"1277",12,24,"Female","Bryllup","i",1,1.1221215853293,7,35,0,0.115221166050581
"1278",12,24,"Female","Casper","e",1,1.00783086160664,7,36,0,0.00780035954468531
"1279",12,24,"Female","Bryllup","i",1,0.719551068235887,7,37,0,-0.329127777778234
"1280",12,24,"Female","Ledelse","e",1,0.514105985173956,7,38,0,-0.665325837946128
"1281",12,24,"Female","Akademiker","e",1,0.467893980618101,7,39,0,-0.759513545868715
"1282",12,24,"Female","Line","i",1,0.379228459991282,7,40,0,-0.96961645869796
