,ID,age,gender,word,response,correct,rt,block,trial
0,42,24,Female,Bryllup,e,1,3.448300599993672,1,1.0
1,42,24,Female,Børn,e,1,2.1065494999929797,1,2.0
2,42,24,Female,Virksomhed,i,1,1.3838991000084206,1,3.0
3,42,24,Female,Karriere,i,1,1.3096280000027036,1,4.0
4,42,24,Female,Handel,i,1,2.811386899993522,1,5.0
5,42,24,Female,Akademiker,i,1,1.7458267000038177,1,6.0
6,42,24,Female,Slægtninge,e,1,1.023093700001482,1,7.0
7,42,24,Female,Hjem,e,1,1.4333328999928199,1,8.0
8,42,24,Female,Ledelse,i,1,0.8353746999928262,1,9.0
9,42,24,Female,Ægteskab,e,1,1.31025260000024,1,10.0
10,42,24,Female,Kontor,i,1,0.9103419999883045,1,11.0
11,42,24,Female,Karriere,e,0,1.1110039000050165,1,12.0
12,42,24,Female,Løn,i,1,1.6835919999866746,1,13.0
13,42,24,Female,Handel,i,1,0.7755696000094758,1,14.0
14,42,24,Female,Forældre,e,1,0.7127227000019047,1,15.0
15,42,24,Female,Ægteskab,e,1,0.6617017999960808,1,16.0
16,42,24,Female,Børn,e,1,0.8218292000092333,1,17.0
17,42,24,Female,Løn,i,1,0.6945447000034619,1,18.0
18,42,24,Female,Forældre,e,1,1.8297454000130529,1,19.0
19,42,24,Female,Kontor,i,1,0.9945759999973234,1,20.0
20,42,24,Female,Mikkel,e,1,1.0513541999971494,2,1.0
21,42,24,Female,Hanne,i,1,0.5530999000038719,2,2.0
22,42,24,Female,Ruth,i,1,0.6167466000042623,2,3.0
23,42,24,Female,Morten,e,1,0.8565474999923026,2,4.0
24,42,24,Female,Birthe,i,1,0.554676699990523,2,5.0
25,42,24,Female,Line,i,1,0.5938979000056861,2,6.0
26,42,24,Female,Sebastian,e,1,0.7035487999964971,2,7.0
27,42,24,Female,Hanne,i,1,0.6883658000006108,2,8.0
28,42,24,Female,Ole,e,1,0.9743192000023555,2,9.0
29,42,24,Female,Rasmus,e,1,0.7083710000006249,2,10.0
30,42,24,Female,Mikkel,e,1,0.5948400999914156,2,11.0
31,42,24,Female,Camilla,i,1,0.6341052999923704,2,12.0
32,42,24,Female,Jens,e,1,0.596728799995617,2,13.0
33,42,24,Female,Sebastian,e,1,0.5937982000032207,2,14.0
34,42,24,Female,Birthe,i,1,0.629884599999059,2,15.0
35,42,24,Female,Casper,e,1,0.5934130999958143,2,16.0
36,42,24,Female,Sebastian,e,1,0.5471650999970734,2,17.0
37,42,24,Female,Ruth,i,1,0.7507384999917122,2,18.0
38,42,24,Female,Josefine,i,1,0.5174882999999681,2,19.0
39,42,24,Female,Ole,e,1,0.5701561999885598,2,20.0
40,42,24,Female,Bryllup,e,1,2.4243685999972513,3,1.0
41,42,24,Female,Forældre,e,1,3.09447719999298,3,2.0
42,42,24,Female,Mette,i,1,0.8962992999877315,3,3.0
43,42,24,Female,Ole,e,1,0.8255185000016354,3,4.0
44,42,24,Female,Hanne,i,1,0.6829152999998769,3,5.0
45,42,24,Female,Ledelse,i,1,2.4175813000038033,3,6.0
46,42,24,Female,Bryllup,e,1,1.5217873000074178,3,7.0
47,42,24,Female,Hjem,e,1,1.629845600007684,3,8.0
48,42,24,Female,Rasmus,i,0,0.6974512000015238,3,9.0
49,42,24,Female,Løn,i,1,0.7398141000012401,3,10.0
50,42,24,Female,Ole,e,1,1.226968200004194,3,11.0
51,42,24,Female,Børn,e,1,1.7833752000005916,3,12.0
52,42,24,Female,Ruth,i,1,0.7089643000072101,3,13.0
53,42,24,Female,Morten,e,1,1.1294834000000264,3,14.0
54,42,24,Female,Jens,i,0,0.5391950000048382,3,15.0
55,42,24,Female,Kontor,i,1,0.6581022000027588,3,16.0
56,42,24,Female,Birthe,i,1,0.8508694000047399,3,17.0
57,42,24,Female,Camilla,i,1,0.576438700009021,3,18.0
58,42,24,Female,Rasmus,e,1,0.5050991000025533,3,19.0
59,42,24,Female,Familie,e,1,1.1380180999985896,3,20.0
60,42,24,Female,Børn,e,1,2.5394734000001336,4,1.0
61,42,24,Female,Mette,i,1,0.6042338999977801,4,2.0
62,42,24,Female,Børn,e,1,0.612395900010597,4,3.0
63,42,24,Female,Line,i,1,0.643533499998739,4,4.0
64,42,24,Female,Akademiker,i,1,0.7566004999971483,4,5.0
65,42,24,Female,Josefine,i,1,0.9319664999929955,4,6.0
66,42,24,Female,Bryllup,e,1,1.5145482000079937,4,7.0
67,42,24,Female,Familie,i,0,1.1436539999995148,4,8.0
68,42,24,Female,Karriere,i,1,0.7136096000031102,4,9.0
69,42,24,Female,Ledelse,i,1,0.6292138999997405,4,10.0
70,42,24,Female,Camilla,i,1,0.5746445999975549,4,11.0
71,42,24,Female,Slægtninge,i,0,0.9997116999875288,4,12.0
72,42,24,Female,Sebastian,e,1,1.399090699997032,4,13.0
73,42,24,Female,Forældre,e,1,1.0019383000035305,4,14.0
74,42,24,Female,Hanne,i,1,0.6015544999972917,4,15.0
75,42,24,Female,Løn,i,1,0.8724237999995239,4,16.0
76,42,24,Female,Jens,e,1,0.6049413000000641,4,17.0
77,42,24,Female,Ledelse,i,1,0.748857999991742,4,18.0
78,42,24,Female,Ruth,i,1,0.6936174000002211,4,19.0
79,42,24,Female,Rasmus,e,1,0.7401992999948561,4,20.0
80,42,24,Female,Kontor,i,1,1.2087446000077762,4,21.0
81,42,24,Female,Ægteskab,e,1,0.7032164999982342,4,22.0
82,42,24,Female,Mette,i,1,0.9539034000044921,4,23.0
83,42,24,Female,Kontor,i,1,0.8674036999873351,4,24.0
84,42,24,Female,Ruth,i,1,0.6447591000032844,4,25.0
85,42,24,Female,Morten,i,0,0.4590520000056131,4,26.0
86,42,24,Female,Birthe,i,1,0.936590299999807,4,27.0
87,42,24,Female,Karriere,i,1,1.2822016999998596,4,28.0
88,42,24,Female,Line,i,1,0.573155999998562,4,29.0
89,42,24,Female,Akademiker,e,0,0.6190129000024172,4,30.0
90,42,24,Female,Mikkel,i,0,0.5963331999955699,4,31.0
91,42,24,Female,Ole,e,1,0.4844560000055935,4,32.0
92,42,24,Female,Camilla,i,1,0.6012988000002224,4,33.0
93,42,24,Female,Jens,e,1,0.6446258000069065,4,34.0
94,42,24,Female,Løn,i,1,0.8044365999958245,4,35.0
95,42,24,Female,Familie,e,1,0.5882265999971423,4,36.0
96,42,24,Female,Handel,i,1,0.7737791999970796,4,37.0
97,42,24,Female,Casper,e,1,0.9691891000111355,4,38.0
98,42,24,Female,Morten,e,1,0.5463627999997698,4,39.0
99,42,24,Female,Virksomhed,i,1,0.605985200003488,4,40.0
100,42,24,Female,Karriere,e,1,1.6353778000047896,5,1.0
101,42,24,Female,Forældre,i,1,0.764137899997877,5,2.0
102,42,24,Female,Akademiker,e,1,1.5345459999953164,5,3.0
103,42,24,Female,Virksomhed,e,1,0.7333792999997968,5,4.0
104,42,24,Female,Børn,i,1,1.4364534000051208,5,5.0
105,42,24,Female,Løn,e,1,0.8700110999925528,5,6.0
106,42,24,Female,Handel,e,1,0.7403060999931768,5,7.0
107,42,24,Female,Familie,i,1,0.724194800000987,5,8.0
108,42,24,Female,Forældre,i,1,1.042448099993635,5,9.0
109,42,24,Female,Slægtninge,i,1,0.673951799995848,5,10.0
110,42,24,Female,Ledelse,e,1,0.5755999999964843,5,11.0
111,42,24,Female,Kontor,e,1,0.4665318999905139,5,12.0
112,42,24,Female,Virksomhed,i,0,0.6176989999949001,5,13.0
113,42,24,Female,Hjem,i,1,0.6364472999994177,5,14.0
114,42,24,Female,Familie,i,1,0.6428782000002684,5,15.0
115,42,24,Female,Bryllup,i,1,0.46955439999874216,5,16.0
116,42,24,Female,Kontor,e,1,0.6167413000075612,5,17.0
117,42,24,Female,Bryllup,i,1,1.0235507000033977,5,18.0
118,42,24,Female,Ægteskab,i,1,0.5052361999987625,5,19.0
119,42,24,Female,Løn,e,1,0.5759803999972064,5,20.0
120,42,24,Female,Ægteskab,i,1,0.5859748999937437,5,21.0
121,42,24,Female,Karriere,e,1,1.0537330999941332,5,22.0
122,42,24,Female,Virksomhed,i,0,0.49764889999642037,5,23.0
123,42,24,Female,Handel,e,1,0.6000817000021925,5,24.0
124,42,24,Female,Akademiker,e,1,0.5437079000112135,5,25.0
125,42,24,Female,Børn,e,0,0.5142306999914581,5,26.0
126,42,24,Female,Slægtninge,i,1,0.5988153999933274,5,27.0
127,42,24,Female,Hjem,i,1,0.6868537999980617,5,28.0
128,42,24,Female,Bryllup,i,1,1.1241500999894924,6,1.0
129,42,24,Female,Forældre,i,1,0.8036313000047812,6,2.0
130,42,24,Female,Mette,i,1,0.8131824000010965,6,3.0
131,42,24,Female,Ole,e,1,0.880138699998497,6,4.0
132,42,24,Female,Hanne,i,1,0.6371564000000944,6,5.0
133,42,24,Female,Ledelse,e,1,0.668248300004052,6,6.0
134,42,24,Female,Bryllup,i,1,0.7218491000094218,6,7.0
135,42,24,Female,Hjem,i,1,0.860289999996894,6,8.0
136,42,24,Female,Rasmus,i,0,0.6243653999990784,6,9.0
137,42,24,Female,Løn,e,1,1.1810595999995712,6,10.0
138,42,24,Female,Ole,e,1,0.6193102999968687,6,11.0
139,42,24,Female,Børn,i,1,1.9292492999957176,6,12.0
140,42,24,Female,Ruth,i,1,0.5618740999925649,6,13.0
141,42,24,Female,Morten,e,1,0.8728948000061791,6,14.0
142,42,24,Female,Jens,e,1,0.4760080999985803,6,15.0
143,42,24,Female,Kontor,e,1,0.6699305999936769,6,16.0
144,42,24,Female,Birthe,i,1,0.6702817999903345,6,17.0
145,42,24,Female,Camilla,i,1,0.6021600000094622,6,18.0
146,42,24,Female,Rasmus,e,1,0.6161078000004636,6,19.0
147,42,24,Female,Familie,i,1,1.3104361000005156,6,20.0
148,42,24,Female,Børn,i,1,1.5985562999994727,7,1.0
149,42,24,Female,Mette,i,1,0.9628708999953233,7,2.0
150,42,24,Female,Børn,i,1,0.6028587000037078,7,3.0
151,42,24,Female,Line,i,1,0.5673985999892466,7,4.0
152,42,24,Female,Akademiker,e,1,0.5848231999989366,7,5.0
153,42,24,Female,Josefine,i,1,0.6684607999923173,7,6.0
154,42,24,Female,Bryllup,i,1,1.0278518999984954,7,7.0
155,42,24,Female,Familie,i,1,1.057961400001659,7,8.0
156,42,24,Female,Karriere,e,1,0.7081790999945952,7,9.0
157,42,24,Female,Ledelse,e,1,0.5179560000105994,7,10.0
158,42,24,Female,Camilla,i,1,0.6594495000026654,7,11.0
159,42,24,Female,Slægtninge,i,1,1.0947397999989334,7,12.0
160,42,24,Female,Sebastian,e,1,0.6710753000079421,7,13.0
161,42,24,Female,Forældre,i,1,0.8597565999953076,7,14.0
162,42,24,Female,Hanne,i,1,0.9241367000067839,7,15.0
163,42,24,Female,Løn,e,1,0.7904420000122627,7,16.0
164,42,24,Female,Jens,i,0,0.6110523999959696,7,17.0
165,42,24,Female,Ledelse,e,1,0.5840851999964798,7,18.0
166,42,24,Female,Ruth,i,1,0.6718697000032989,7,19.0
167,42,24,Female,Rasmus,e,1,0.6171019000030356,7,20.0
168,42,24,Female,Kontor,e,1,0.6286064000014449,7,21.0
169,42,24,Female,Ægteskab,i,1,0.7176882999920053,7,22.0
170,42,24,Female,Mette,i,1,0.6386766999930842,7,23.0
171,42,24,Female,Kontor,e,1,0.929996899998514,7,24.0
172,42,24,Female,Ruth,i,1,0.6720640999992611,7,25.0
173,42,24,Female,Morten,e,1,0.6552649000077508,7,26.0
174,42,24,Female,Birthe,i,1,0.8711380000022473,7,27.0
175,42,24,Female,Karriere,e,1,0.6313872999890009,7,28.0
176,42,24,Female,Line,i,1,0.6016473000054248,7,29.0
177,42,24,Female,Akademiker,e,1,0.5628701999958139,7,30.0
178,42,24,Female,Mikkel,e,1,0.5882297000061953,7,31.0
179,42,24,Female,Ole,e,1,0.4560700000001816,7,32.0
180,42,24,Female,Camilla,i,1,0.5143279999902006,7,33.0
181,42,24,Female,Jens,e,1,0.7263581000006525,7,34.0
182,42,24,Female,Løn,i,0,0.5390365999919595,7,35.0
183,42,24,Female,Familie,i,1,0.6654744999977993,7,36.0
184,42,24,Female,Handel,e,1,0.6720638000115287,7,37.0
185,42,24,Female,Casper,i,0,0.4655522999964887,7,38.0
186,42,24,Female,Morten,e,1,0.46644360000209417,7,39.0
187,42,24,Female,Virksomhed,e,1,0.5296204000042053,7,40.0
