,ID,age,gender,word,response,correct,rt,block,trial
0,62,22,Female,Handel,i,1,1.792496174790358,1,1.0
1,62,22,Female,Bryllup,e,1,0.7504240017033226,1,2.0
2,62,22,Female,Hjem,e,1,0.868375588107483,1,3.0
3,62,22,Female,Løn,i,1,0.8675891643724754,1,4.0
4,62,22,Female,Akademiker,e,0,1.5679330697385012,1,5.0
5,62,22,Female,Familie,e,1,1.0754543425209704,1,6.0
6,62,22,Female,Karriere,i,1,1.177335344936182,1,7.0
7,62,22,Female,Slægtninge,e,1,2.2770341177047158,1,8.0
8,62,22,Female,Virksomhed,i,1,1.4677279752177128,1,9.0
9,62,22,Female,Ledelse,i,1,1.1945785085235912,1,10.0
10,62,22,Female,Karriere,i,1,0.9149174190924896,1,11.0
11,62,22,Female,Børn,e,1,0.7654742447302851,1,12.0
12,62,22,Female,Akademiker,i,1,0.8483232795961158,1,13.0
13,62,22,Female,Kontor,i,1,0.9953332016211789,1,14.0
14,62,22,Female,Slægtninge,e,1,1.2409984630739928,1,15.0
15,62,22,Female,Forældre,e,1,0.7028511388389234,1,16.0
16,62,22,Female,Virksomhed,i,1,0.8941347072441204,1,17.0
17,62,22,Female,Ægteskab,e,1,0.8016463154399389,1,18.0
18,62,22,Female,Slægtninge,e,1,0.7866905801065514,1,19.0
19,62,22,Female,Børn,e,1,0.8132754655471217,1,20.0
20,62,22,Female,Mikkel,e,1,1.1826303415018629,2,1.0
21,62,22,Female,Jens,e,1,0.5147581672181332,2,2.0
22,62,22,Female,Ole,e,1,0.5217017029344788,2,3.0
23,62,22,Female,Hanne,i,1,0.6505255226356894,2,4.0
24,62,22,Female,Camilla,i,1,0.5290844214550816,2,5.0
25,62,22,Female,Mette,i,1,0.44067782114052534,2,6.0
26,62,22,Female,Birthe,i,1,0.4959361692490347,2,7.0
27,62,22,Female,Josefine,i,1,0.44892778671510314,2,8.0
28,62,22,Female,Sebastian,e,1,0.5618969789184121,2,9.0
29,62,22,Female,Ruth,i,1,0.6566308905876213,2,10.0
30,62,22,Female,Rasmus,e,1,0.788748367496737,2,11.0
31,62,22,Female,Jens,e,1,0.5462134060653625,2,12.0
32,62,22,Female,Sebastian,e,1,0.5246968697856573,2,13.0
33,62,22,Female,Mette,e,0,0.43319631856138585,2,14.0
34,62,22,Female,Line,i,1,0.5750801604835942,2,15.0
35,62,22,Female,Ole,i,0,0.46761850024449814,2,16.0
36,62,22,Female,Morten,e,1,0.7078386646790022,2,17.0
37,62,22,Female,Camilla,i,1,0.549702493206496,2,18.0
38,62,22,Female,Rasmus,e,1,0.763823995032908,2,19.0
39,62,22,Female,Ruth,i,1,0.5861093364192129,2,20.0
40,62,22,Female,Børn,e,1,0.7224056783297783,3,1.0
41,62,22,Female,Ledelse,i,1,0.7950320599175029,3,2.0
42,62,22,Female,Josefine,i,1,0.8151810143026523,3,3.0
43,62,22,Female,Slægtninge,e,1,1.1257503953502237,3,4.0
44,62,22,Female,Handel,i,1,0.8438155620387988,3,5.0
45,62,22,Female,Hanne,i,1,0.9439402608759337,3,6.0
46,62,22,Female,Familie,e,1,0.7031560437453663,3,7.0
47,62,22,Female,Casper,e,1,1.0628027132688658,3,8.0
48,62,22,Female,Ole,e,1,0.5214686409799469,3,9.0
49,62,22,Female,Line,i,1,0.6659225789571792,3,10.0
50,62,22,Female,Ruth,i,1,0.5610139093087128,3,11.0
51,62,22,Female,Børn,e,1,1.6769936632808822,3,12.0
52,62,22,Female,Hjem,e,1,1.207570964158549,3,13.0
53,62,22,Female,Camilla,i,1,0.8371743654088277,3,14.0
54,62,22,Female,Line,i,1,0.5482108966943997,3,15.0
55,62,22,Female,Rasmus,i,0,0.4687273619865664,3,16.0
56,62,22,Female,Akademiker,i,1,0.85359817724202,3,17.0
57,62,22,Female,Virksomhed,i,1,0.665583890758171,3,18.0
58,62,22,Female,Morten,e,1,0.9211480845724509,3,19.0
59,62,22,Female,Forældre,e,1,0.9709715989420147,3,20.0
60,62,22,Female,Løn,i,1,1.0954985259368186,4,1.0
61,62,22,Female,Morten,e,1,0.8045354284104178,4,2.0
62,62,22,Female,Mette,i,1,0.7424896319498657,4,3.0
63,62,22,Female,Line,i,1,0.6644502260915033,4,4.0
64,62,22,Female,Virksomhed,e,0,0.6780370966216651,4,5.0
65,62,22,Female,Casper,e,1,0.9639510886345306,4,6.0
66,62,22,Female,Akademiker,i,1,0.7316948008792679,4,7.0
67,62,22,Female,Karriere,i,1,0.6503544679899278,4,8.0
68,62,22,Female,Forældre,e,1,0.5970696628601218,4,9.0
69,62,22,Female,Josefine,i,1,0.9943492097700073,4,10.0
70,62,22,Female,Jens,e,1,0.6592381910286349,4,11.0
71,62,22,Female,Ledelse,i,1,1.1853458340074212,4,12.0
72,62,22,Female,Line,i,1,0.6031698991719168,4,13.0
73,62,22,Female,Josefine,i,1,0.564275493770765,4,14.0
74,62,22,Female,Camilla,i,1,0.5126503463434346,4,15.0
75,62,22,Female,Jens,i,0,0.49392371133853885,4,16.0
76,62,22,Female,Handel,i,1,1.6966717897530543,4,17.0
77,62,22,Female,Forældre,e,1,0.6355389974660284,4,18.0
78,62,22,Female,Rasmus,e,1,0.7750973514757789,4,19.0
79,62,22,Female,Birthe,i,1,0.6938318549928226,4,20.0
80,62,22,Female,Sebastian,e,1,0.6060431895875809,4,21.0
81,62,22,Female,Rasmus,e,1,0.63980766615623,4,22.0
82,62,22,Female,Sebastian,e,1,0.5308621068625143,4,23.0
83,62,22,Female,Camilla,i,1,0.6485772102187184,4,24.0
84,62,22,Female,Birthe,i,1,0.5819565572519423,4,25.0
85,62,22,Female,Ruth,i,1,0.547852109573796,4,26.0
86,62,22,Female,Mikkel,e,1,0.5792829731344682,4,27.0
87,62,22,Female,Ægteskab,e,1,0.7405785239188845,4,28.0
88,62,22,Female,Ledelse,i,1,0.6988830986892935,4,29.0
89,62,22,Female,Løn,i,1,1.1362694008048493,4,30.0
90,62,22,Female,Karriere,i,1,0.6955757571085996,4,31.0
91,62,22,Female,Familie,e,1,0.5818569179200495,4,32.0
92,62,22,Female,Ægteskab,e,1,0.4975013192588449,4,33.0
93,62,22,Female,Mette,i,1,0.8385735924130131,4,34.0
94,62,22,Female,Akademiker,e,0,0.7141411731099652,4,35.0
95,62,22,Female,Hjem,e,1,1.5734671151722068,4,36.0
96,62,22,Female,Ole,e,1,0.9244934858115812,4,37.0
97,62,22,Female,Slægtninge,i,0,0.9039327173659331,4,38.0
98,62,22,Female,Bryllup,e,1,1.1761554955155589,4,39.0
99,62,22,Female,Kontor,i,1,1.0860178221837486,4,40.0
100,62,22,Female,Handel,e,1,1.2157140205799806,5,1.0
101,62,22,Female,Løn,e,1,0.6877846456218322,5,2.0
102,62,22,Female,Karriere,e,1,0.5985565553701235,5,3.0
103,62,22,Female,Hjem,i,1,0.7486839483181029,5,4.0
104,62,22,Female,Ægteskab,i,1,0.7024816608036417,5,5.0
105,62,22,Female,Akademiker,e,1,0.694317650188168,5,6.0
106,62,22,Female,Børn,i,1,0.7243116547224417,5,7.0
107,62,22,Female,Familie,i,1,0.562452478880914,5,8.0
108,62,22,Female,Ægteskab,i,1,0.660830709783113,5,9.0
109,62,22,Female,Virksomhed,e,1,0.648632375341549,5,10.0
110,62,22,Female,Familie,i,1,0.6904278675383466,5,11.0
111,62,22,Female,Slægtninge,e,0,0.7223979808704826,5,12.0
112,62,22,Female,Løn,e,1,0.7891884055743503,5,13.0
113,62,22,Female,Bryllup,i,1,0.9455379112687297,5,14.0
114,62,22,Female,Ledelse,e,1,0.662146975282667,5,15.0
115,62,22,Female,Kontor,e,1,0.5652103074107799,5,16.0
116,62,22,Female,Karriere,e,1,0.5897703334794642,5,17.0
117,62,22,Female,Kontor,e,1,0.5424630329525826,5,18.0
118,62,22,Female,Børn,i,1,0.5944482504110056,5,19.0
119,62,22,Female,Akademiker,e,1,0.5472256219336487,5,20.0
120,62,22,Female,Forældre,i,1,0.6870328604527458,5,21.0
121,62,22,Female,Bryllup,i,1,0.5528396354138749,5,22.0
122,62,22,Female,Handel,e,1,0.6654230993908641,5,23.0
123,62,22,Female,Ægteskab,i,1,0.6854390587886883,5,24.0
124,62,22,Female,Slægtninge,e,0,0.5499488118975933,5,25.0
125,62,22,Female,Ledelse,e,1,1.3485067357041771,5,26.0
126,62,22,Female,Virksomhed,e,1,0.5956191194618441,5,27.0
127,62,22,Female,Forældre,e,0,0.6541903684255885,5,28.0
128,62,22,Female,Børn,i,1,1.033435196375649,6,1.0
129,62,22,Female,Ledelse,e,1,0.9135660873898814,6,2.0
130,62,22,Female,Josefine,i,1,0.6640071945585078,6,3.0
131,62,22,Female,Slægtninge,i,1,0.6522942276760659,6,4.0
132,62,22,Female,Handel,e,1,0.7457905589808433,6,5.0
133,62,22,Female,Hanne,i,1,0.7741368796378083,6,6.0
134,62,22,Female,Familie,i,1,0.8025285297771916,6,7.0
135,62,22,Female,Casper,e,1,0.8790314372781722,6,8.0
136,62,22,Female,Ole,e,1,0.5699865807628157,6,9.0
137,62,22,Female,Line,i,1,0.6622744109945415,6,10.0
138,62,22,Female,Ruth,i,1,0.48834647460626,6,11.0
139,62,22,Female,Børn,i,1,0.6806431141521898,6,12.0
140,62,22,Female,Hjem,i,1,0.6446917039356777,6,13.0
141,62,22,Female,Camilla,i,1,0.5287063906871481,6,14.0
142,62,22,Female,Line,i,1,0.49738329155297833,6,15.0
143,62,22,Female,Rasmus,e,1,0.578826257230503,6,16.0
144,62,22,Female,Akademiker,e,1,0.5638209160497354,6,17.0
145,62,22,Female,Virksomhed,e,1,0.5937340972632228,6,18.0
146,62,22,Female,Morten,e,1,0.5680481039871665,6,19.0
147,62,22,Female,Forældre,i,1,0.7119606540099994,6,20.0
148,62,22,Female,Løn,e,1,1.176119574040058,7,1.0
149,62,22,Female,Morten,e,1,0.6440387028242185,7,2.0
150,62,22,Female,Mette,i,1,0.6731132886370688,7,3.0
151,62,22,Female,Line,i,1,0.47747766240172496,7,4.0
152,62,22,Female,Virksomhed,e,1,0.5332859511963761,7,5.0
153,62,22,Female,Casper,e,1,0.6438770561835554,7,6.0
154,62,22,Female,Akademiker,e,1,0.7637795208247553,7,7.0
155,62,22,Female,Karriere,e,1,0.5391039473424826,7,8.0
156,62,22,Female,Forældre,i,1,0.701456615837742,7,9.0
157,62,22,Female,Josefine,i,1,0.574956573502277,7,10.0
158,62,22,Female,Jens,e,1,0.8891262272099993,7,11.0
159,62,22,Female,Ledelse,e,1,0.6180546468276589,7,12.0
160,62,22,Female,Line,i,1,0.7127436566524921,7,13.0
161,62,22,Female,Josefine,i,1,0.5744502517500223,7,14.0
162,62,22,Female,Camilla,i,1,0.5151943565651891,7,15.0
163,62,22,Female,Jens,e,1,0.6584346618292329,7,16.0
164,62,22,Female,Handel,e,1,0.5985116535257475,7,17.0
165,62,22,Female,Forældre,i,1,0.7026920580183287,7,18.0
166,62,22,Female,Rasmus,i,0,0.6405701422409038,7,19.0
167,62,22,Female,Birthe,i,1,0.7583233052546348,7,20.0
168,62,22,Female,Sebastian,i,0,0.4943158541136654,7,21.0
169,62,22,Female,Rasmus,e,1,0.7807053780434217,7,22.0
170,62,22,Female,Sebastian,e,1,0.5134008486020321,7,23.0
171,62,22,Female,Camilla,i,1,0.5993032088999826,7,24.0
172,62,22,Female,Birthe,i,1,0.5403659029934715,7,25.0
173,62,22,Female,Ruth,i,1,0.5264818250161625,7,26.0
174,62,22,Female,Mikkel,e,1,0.5827635075438593,7,27.0
175,62,22,Female,Ægteskab,i,1,0.8246488889571992,7,28.0
176,62,22,Female,Ledelse,e,1,0.7972095855602674,7,29.0
177,62,22,Female,Løn,e,1,0.6109661422988211,7,30.0
178,62,22,Female,Karriere,e,1,0.5545116945786503,7,31.0
179,62,22,Female,Familie,i,1,0.6065554982524191,7,32.0
180,62,22,Female,Ægteskab,i,1,0.5381413373224859,7,33.0
181,62,22,Female,Mette,i,1,0.6582101526064434,7,34.0
182,62,22,Female,Akademiker,e,1,0.7053797541429958,7,35.0
183,62,22,Female,Hjem,i,1,0.6220000222374438,7,36.0
184,62,22,Female,Ole,e,1,0.6334957497201685,7,37.0
185,62,22,Female,Slægtninge,i,1,1.1615512774797025,7,38.0
186,62,22,Female,Bryllup,i,1,0.5351431770150157,7,39.0
187,62,22,Female,Kontor,e,1,0.5985095153419024,7,40.0
