,ID,age,gender,word,response,correct,rt,block,trial
0,23,24,Male,Ægteskab,e,1,1.1048121000003448,1,1.0
1,23,24,Male,Akademiker,i,1,0.7825705000004746,1,2.0
2,23,24,Male,Virksomhed,i,1,0.6578104000000167,1,3.0
3,23,24,Male,Børn,e,1,0.5953256999991936,1,4.0
4,23,24,Male,Virksomhed,i,1,0.6657562999998845,1,5.0
5,23,24,Male,Forældre,e,1,0.6829208999997718,1,6.0
6,23,24,Male,Karriere,i,1,0.6045487000001231,1,7.0
7,23,24,Male,Hjem,e,1,0.7766639000001305,1,8.0
8,23,24,Male,Ægteskab,e,1,0.5501500000000306,1,9.0
9,23,24,Male,Kontor,i,1,0.6213930999992954,1,10.0
10,23,24,Male,Forældre,e,1,0.5356445000006715,1,11.0
11,23,24,Male,Bryllup,i,0,0.6197139999994761,1,12.0
12,23,24,Male,Slægtninge,e,1,0.7308783999997104,1,13.0
13,23,24,Male,Familie,e,1,0.5231649000006655,1,14.0
14,23,24,Male,Løn,i,1,0.5857252999994671,1,15.0
15,23,24,Male,Bryllup,e,1,0.5926370999995925,1,16.0
16,23,24,Male,Handel,i,1,0.5996730999995634,1,17.0
17,23,24,Male,Hjem,e,1,0.5762577999994392,1,18.0
18,23,24,Male,Børn,e,1,0.5332359000003635,1,19.0
19,23,24,Male,Virksomhed,i,1,0.5582008999999744,1,20.0
20,23,24,Male,Josefine,i,1,0.6397849000004499,2,1.0
21,23,24,Male,Sebastian,e,1,0.5525045999993381,2,2.0
22,23,24,Male,Hanne,i,1,0.5261368999999831,2,3.0
23,23,24,Male,Casper,e,1,0.5264751999993678,2,4.0
24,23,24,Male,Hanne,i,1,0.5600758999999016,2,5.0
25,23,24,Male,Rasmus,e,1,0.49797769999986485,2,6.0
26,23,24,Male,Camilla,i,1,0.47862030000032973,2,7.0
27,23,24,Male,Ole,e,1,0.5226356000002852,2,8.0
28,23,24,Male,Rasmus,e,1,0.4604464000003645,2,9.0
29,23,24,Male,Sebastian,e,1,0.5590057999997953,2,10.0
30,23,24,Male,Morten,e,1,0.4847772000002806,2,11.0
31,23,24,Male,Casper,e,1,0.44234510000023874,2,12.0
32,23,24,Male,Josefine,i,1,0.5058705000001282,2,13.0
33,23,24,Male,Ruth,i,1,0.5532194999996136,2,14.0
34,23,24,Male,Ole,e,1,0.5157776999994894,2,15.0
35,23,24,Male,Jens,e,1,0.5893466999996235,2,16.0
36,23,24,Male,Ruth,i,1,0.5610055999995893,2,17.0
37,23,24,Male,Mikkel,e,1,0.5809892999996009,2,18.0
38,23,24,Male,Mette,i,1,0.6600250999999844,2,19.0
39,23,24,Male,Mikkel,e,1,0.541033200000129,2,20.0
40,23,24,Male,Hanne,i,1,0.8107071000003998,3,1.0
41,23,24,Male,Karriere,i,1,0.5671474000000671,3,2.0
42,23,24,Male,Virksomhed,i,1,0.5482368999992104,3,3.0
43,23,24,Male,Mette,i,1,0.564693399999669,3,4.0
44,23,24,Male,Familie,i,0,0.5952216999994562,3,5.0
45,23,24,Male,Slægtninge,e,1,1.3082337000005282,3,6.0
46,23,24,Male,Løn,i,1,0.6205061999999089,3,7.0
47,23,24,Male,Bryllup,i,0,0.5483571000004304,3,8.0
48,23,24,Male,Casper,e,1,1.1155275000000984,3,9.0
49,23,24,Male,Virksomhed,i,1,0.6017778999994334,3,10.0
50,23,24,Male,Ægteskab,e,1,0.6216841999994358,3,11.0
51,23,24,Male,Hjem,e,1,0.659691699999712,3,12.0
52,23,24,Male,Ruth,i,1,0.5584241000005932,3,13.0
53,23,24,Male,Camilla,i,1,0.4938582000004317,3,14.0
54,23,24,Male,Josefine,i,1,0.5849385999999868,3,15.0
55,23,24,Male,Ole,e,1,0.504826200000025,3,16.0
56,23,24,Male,Ledelse,i,1,0.910165400000551,3,17.0
57,23,24,Male,Jens,e,1,0.5195023999995101,3,18.0
58,23,24,Male,Karriere,i,1,0.7172094000006837,3,19.0
59,23,24,Male,Camilla,i,1,0.5933195999996315,3,20.0
60,23,24,Male,Jens,e,1,0.6453551000004154,4,1.0
61,23,24,Male,Rasmus,e,1,0.42939489999935176,4,2.0
62,23,24,Male,Hjem,e,1,0.6652746999998271,4,3.0
63,23,24,Male,Rasmus,e,1,0.44599099999959435,4,4.0
64,23,24,Male,Casper,e,1,0.44935590000022785,4,5.0
65,23,24,Male,Familie,e,1,0.5347696999997424,4,6.0
66,23,24,Male,Camilla,e,0,0.4671500999993441,4,7.0
67,23,24,Male,Mette,i,1,0.5600218999998106,4,8.0
68,23,24,Male,Morten,e,1,0.5784334999998464,4,9.0
69,23,24,Male,Sebastian,i,0,0.9486974000001283,4,10.0
70,23,24,Male,Forældre,e,1,0.8082055999993827,4,11.0
71,23,24,Male,Karriere,i,1,0.7429205999997066,4,12.0
72,23,24,Male,Familie,e,1,1.162355700000262,4,13.0
73,23,24,Male,Ole,e,1,0.8092616000003545,4,14.0
74,23,24,Male,Ægteskab,e,1,0.6136365000002115,4,15.0
75,23,24,Male,Kontor,i,1,0.6219011000002865,4,16.0
76,23,24,Male,Josefine,e,0,0.5280054000004384,4,17.0
77,23,24,Male,Ruth,i,1,0.571518499999911,4,18.0
78,23,24,Male,Line,i,1,0.517638899999838,4,19.0
79,23,24,Male,Løn,i,1,0.6814896000005319,4,20.0
80,23,24,Male,Hanne,i,1,0.6561663999991652,4,21.0
81,23,24,Male,Forældre,i,0,0.632322600000407,4,22.0
82,23,24,Male,Børn,e,1,0.7660730000006879,4,23.0
83,23,24,Male,Mette,i,1,0.7497573999999076,4,24.0
84,23,24,Male,Birthe,i,1,0.5658393000003343,4,25.0
85,23,24,Male,Morten,i,0,0.41145589999996446,4,26.0
86,23,24,Male,Akademiker,i,1,0.6239180000002307,4,27.0
87,23,24,Male,Bryllup,e,1,0.7097621000002619,4,28.0
88,23,24,Male,Jens,e,1,0.9895959999994375,4,29.0
89,23,24,Male,Josefine,i,1,0.5573296000002301,4,30.0
90,23,24,Male,Hanne,i,1,0.5401166000001467,4,31.0
91,23,24,Male,Mikkel,e,1,0.5871778999999151,4,32.0
92,23,24,Male,Karriere,i,1,0.5314678000004278,4,33.0
93,23,24,Male,Handel,i,1,0.5673450000003868,4,34.0
94,23,24,Male,Josefine,i,1,0.7388731000000917,4,35.0
95,23,24,Male,Sebastian,e,1,0.495051599999897,4,36.0
96,23,24,Male,Akademiker,i,1,0.5863687000000937,4,37.0
97,23,24,Male,Ledelse,i,1,0.6432166000004145,4,38.0
98,23,24,Male,Ruth,i,1,0.6909083999998984,4,39.0
99,23,24,Male,Virksomhed,i,1,0.9424381999997422,4,40.0
100,23,24,Male,Handel,e,1,1.2245037000002412,5,1.0
101,23,24,Male,Børn,i,1,0.6372381999999561,5,2.0
102,23,24,Male,Hjem,i,1,0.628740199999811,5,3.0
103,23,24,Male,Forældre,i,1,0.516112699999212,5,4.0
104,23,24,Male,Slægtninge,i,1,0.5162565000000541,5,5.0
105,23,24,Male,Familie,i,1,0.6147894000005181,5,6.0
106,23,24,Male,Slægtninge,i,1,0.6513813000001392,5,7.0
107,23,24,Male,Børn,i,1,0.48398420000012266,5,8.0
108,23,24,Male,Løn,e,1,0.9062785999994958,5,9.0
109,23,24,Male,Ægteskab,i,1,0.5782134000000951,5,10.0
110,23,24,Male,Karriere,e,1,0.7216396999992867,5,11.0
111,23,24,Male,Ledelse,e,1,0.5823491999999533,5,12.0
112,23,24,Male,Bryllup,i,1,0.6308896000000459,5,13.0
113,23,24,Male,Ægteskab,i,1,0.9804728999997678,5,14.0
114,23,24,Male,Akademiker,e,1,0.7688041000001249,5,15.0
115,23,24,Male,Løn,e,1,0.8115201999999044,5,16.0
116,23,24,Male,Virksomhed,e,1,0.9595159000000422,5,17.0
117,23,24,Male,Kontor,e,1,1.0283420999994632,5,18.0
118,23,24,Male,Familie,i,1,0.5217086000002382,5,19.0
119,23,24,Male,Hjem,i,1,0.6205115000002479,5,20.0
120,23,24,Male,Ledelse,e,1,0.5383566999998948,5,21.0
121,23,24,Male,Akademiker,e,1,0.6733189999995375,5,22.0
122,23,24,Male,Handel,e,1,0.548945300000014,5,23.0
123,23,24,Male,Karriere,e,1,0.6827971000002435,5,24.0
124,23,24,Male,Kontor,e,1,0.42392329999984213,5,25.0
125,23,24,Male,Forældre,i,1,0.4951310000005833,5,26.0
126,23,24,Male,Virksomhed,e,1,0.626152899999397,5,27.0
127,23,24,Male,Bryllup,i,1,0.5535707999997612,5,28.0
128,23,24,Male,Hanne,i,1,0.8980875999995988,6,1.0
129,23,24,Male,Karriere,e,1,1.1221820999999181,6,2.0
130,23,24,Male,Virksomhed,e,1,0.5918416000004072,6,3.0
131,23,24,Male,Mette,i,1,0.5630117999999129,6,4.0
132,23,24,Male,Familie,i,1,0.8835060999999769,6,5.0
133,23,24,Male,Slægtninge,i,1,0.684276800000589,6,6.0
134,23,24,Male,Løn,e,1,0.7124370000001363,6,7.0
135,23,24,Male,Bryllup,i,1,0.8283733999996912,6,8.0
136,23,24,Male,Casper,e,1,0.828907099999924,6,9.0
137,23,24,Male,Virksomhed,i,0,0.9925718000004053,6,10.0
138,23,24,Male,Ægteskab,i,1,0.6846820000000662,6,11.0
139,23,24,Male,Hjem,i,1,0.7474956000005477,6,12.0
140,23,24,Male,Ruth,i,1,0.6364327999999659,6,13.0
141,23,24,Male,Camilla,i,1,0.505935999999565,6,14.0
142,23,24,Male,Josefine,i,1,0.4267316000004939,6,15.0
143,23,24,Male,Ole,i,0,0.3772711999999956,6,16.0
144,23,24,Male,Ledelse,e,1,0.6814552000005278,6,17.0
145,23,24,Male,Jens,e,1,0.5424403999995775,6,18.0
146,23,24,Male,Karriere,e,1,0.8933414000002813,6,19.0
147,23,24,Male,Camilla,i,1,0.6003885999998602,6,20.0
148,23,24,Male,Jens,e,1,0.7205376000001706,7,1.0
149,23,24,Male,Rasmus,e,1,0.45690749999994296,7,2.0
150,23,24,Male,Hjem,i,1,0.6330748999998832,7,3.0
151,23,24,Male,Rasmus,e,1,0.5931080000000293,7,4.0
152,23,24,Male,Casper,e,1,0.4544307000005574,7,5.0
153,23,24,Male,Familie,i,1,0.6046103000007861,7,6.0
154,23,24,Male,Camilla,i,1,0.4900840000000244,7,7.0
155,23,24,Male,Mette,i,1,0.6326386999999158,7,8.0
156,23,24,Male,Morten,e,1,0.6208977999995113,7,9.0
157,23,24,Male,Sebastian,e,1,0.6796837000001688,7,10.0
158,23,24,Male,Forældre,i,1,0.7052584000002753,7,11.0
159,23,24,Male,Karriere,e,1,0.6853349000002709,7,12.0
160,23,24,Male,Familie,i,1,0.6611816999993607,7,13.0
161,23,24,Male,Ole,e,1,0.5182528000004822,7,14.0
162,23,24,Male,Ægteskab,i,1,0.7546387000002142,7,15.0
163,23,24,Male,Kontor,e,1,0.7551763999999821,7,16.0
164,23,24,Male,Josefine,i,1,0.5556411000006847,7,17.0
165,23,24,Male,Ruth,i,1,0.6436665999999605,7,18.0
166,23,24,Male,Line,i,1,0.4855922999995528,7,19.0
167,23,24,Male,Løn,e,1,0.6653319999995801,7,20.0
168,23,24,Male,Hanne,i,1,0.4807430999999269,7,21.0
169,23,24,Male,Forældre,i,1,0.6248107000001255,7,22.0
170,23,24,Male,Børn,i,1,0.5547614999995858,7,23.0
171,23,24,Male,Mette,i,1,0.5379330999994636,7,24.0
172,23,24,Male,Birthe,i,1,0.4607518999991953,7,25.0
173,23,24,Male,Morten,e,1,0.5526800000006915,7,26.0
174,23,24,Male,Akademiker,e,1,0.6598482999997941,7,27.0
175,23,24,Male,Bryllup,i,1,0.6973852999999508,7,28.0
176,23,24,Male,Jens,e,1,0.5381632000007812,7,29.0
177,23,24,Male,Josefine,i,1,0.5277526999998372,7,30.0
178,23,24,Male,Hanne,i,1,0.5969137000001865,7,31.0
179,23,24,Male,Mikkel,e,1,0.5896589000003587,7,32.0
180,23,24,Male,Karriere,i,0,0.8645409999999174,7,33.0
181,23,24,Male,Handel,e,1,1.1620505999999295,7,34.0
182,23,24,Male,Josefine,i,1,0.48762340000030235,7,35.0
183,23,24,Male,Sebastian,e,1,0.5730048999994324,7,36.0
184,23,24,Male,Akademiker,e,1,0.8478433000000223,7,37.0
185,23,24,Male,Ledelse,e,1,1.203792500000418,7,38.0
186,23,24,Male,Ruth,i,1,0.5268466999996235,7,39.0
187,23,24,Male,Virksomhed,e,1,0.5566587000002983,7,40.0
