,ID,age,gender,word,response,correct,rt,block,trial
0,64,20,Female,Kontor,i,1,1.279718300094828,1,1.0
1,64,20,Female,Ledelse,i,1,0.755939400056377,1,2.0
2,64,20,Female,Handel,i,1,0.5777364000678062,1,3.0
3,64,20,Female,Familie,e,1,0.6458356999792159,1,4.0
4,64,20,Female,Virksomhed,i,1,0.6415930000366643,1,5.0
5,64,20,Female,Karriere,i,1,0.741567200049758,1,6.0
6,64,20,Female,Virksomhed,i,1,0.5481755000073463,1,7.0
7,64,20,Female,Bryllup,e,1,0.6092594999354333,1,8.0
8,64,20,Female,Forældre,e,1,0.5155383999226615,1,9.0
9,64,20,Female,Børn,e,1,0.47357649996411055,1,10.0
10,64,20,Female,Hjem,e,1,0.46734279999509454,1,11.0
11,64,20,Female,Ledelse,i,1,0.5362108000554144,1,12.0
12,64,20,Female,Slægtninge,e,1,0.7444689000258222,1,13.0
13,64,20,Female,Akademiker,i,1,0.7200943999923766,1,14.0
14,64,20,Female,Handel,i,1,0.6350139999995008,1,15.0
15,64,20,Female,Familie,i,0,0.4392632999224588,1,16.0
16,64,20,Female,Bryllup,e,1,0.6725029000081122,1,17.0
17,64,20,Female,Ægteskab,e,1,0.5386899999575689,1,18.0
18,64,20,Female,Akademiker,e,0,0.5121186999604106,1,19.0
19,64,20,Female,Hjem,e,1,0.8217947999946773,1,20.0
20,64,20,Female,Josefine,i,1,0.8388943000463769,2,1.0
21,64,20,Female,Rasmus,e,1,0.6011189999990165,2,2.0
22,64,20,Female,Hanne,i,1,0.5109488000161946,2,3.0
23,64,20,Female,Morten,e,1,0.6127827999880537,2,4.0
24,64,20,Female,Mikkel,e,1,0.6457894999766722,2,5.0
25,64,20,Female,Ole,e,1,0.5009756999788806,2,6.0
26,64,20,Female,Mikkel,e,1,0.5096837000455707,2,7.0
27,64,20,Female,Mette,i,1,0.7259101999225095,2,8.0
28,64,20,Female,Josefine,i,1,0.5570556999882683,2,9.0
29,64,20,Female,Camilla,i,1,0.46814759995322675,2,10.0
30,64,20,Female,Ruth,i,1,0.5591333999764174,2,11.0
31,64,20,Female,Camilla,i,1,0.45817890006583184,2,12.0
32,64,20,Female,Morten,e,1,0.6311974000418559,2,13.0
33,64,20,Female,Line,i,1,0.5642833999590948,2,14.0
34,64,20,Female,Mette,i,1,0.476300899987109,2,15.0
35,64,20,Female,Ruth,i,1,0.4883184999926016,2,16.0
36,64,20,Female,Sebastian,e,1,0.5380234000040218,2,17.0
37,64,20,Female,Hanne,i,1,0.6000037000048906,2,18.0
38,64,20,Female,Ole,e,1,0.6231750999577343,2,19.0
39,64,20,Female,Casper,e,1,0.5991821000352502,2,20.0
40,64,20,Female,Akademiker,i,1,1.910478499950841,3,1.0
41,64,20,Female,Josefine,i,1,0.9658773000119254,3,2.0
42,64,20,Female,Sebastian,i,0,0.4172466000309214,3,3.0
43,64,20,Female,Løn,i,1,0.9451643000356853,3,4.0
44,64,20,Female,Mette,i,1,0.5130691999802366,3,5.0
45,64,20,Female,Karriere,i,1,0.5673568999627605,3,6.0
46,64,20,Female,Mikkel,e,1,0.5719385999254882,3,7.0
47,64,20,Female,Morten,e,1,0.555209800018929,3,8.0
48,64,20,Female,Børn,i,0,0.6335631998954341,3,9.0
49,64,20,Female,Handel,i,1,1.7904608000535518,3,10.0
50,64,20,Female,Løn,i,1,0.6068851999007165,3,11.0
51,64,20,Female,Hanne,i,1,0.6000531999161467,3,12.0
52,64,20,Female,Camilla,i,1,0.4380335999885574,3,13.0
53,64,20,Female,Sebastian,i,0,0.37451490003149956,3,14.0
54,64,20,Female,Ruth,i,1,1.6476894000079483,3,15.0
55,64,20,Female,Ledelse,e,0,0.8695305999135599,3,16.0
56,64,20,Female,Ruth,i,1,0.6058317000279203,3,17.0
57,64,20,Female,Camilla,i,1,0.4658816000446677,3,18.0
58,64,20,Female,Jens,i,0,0.47195130004547536,3,19.0
59,64,20,Female,Morten,e,1,0.6868025999283418,3,20.0
60,64,20,Female,Birthe,i,1,1.0904406999470666,4,1.0
61,64,20,Female,Løn,i,1,0.5970325999660417,4,2.0
62,64,20,Female,Ægteskab,e,1,0.678686499944888,4,3.0
63,64,20,Female,Mette,i,1,0.6142338999779895,4,4.0
64,64,20,Female,Jens,e,1,0.8977254999335855,4,5.0
65,64,20,Female,Familie,i,0,1.1677157999947667,4,6.0
66,64,20,Female,Ægteskab,e,1,0.8373918000143021,4,7.0
67,64,20,Female,Camilla,i,1,0.5530242000240833,4,8.0
68,64,20,Female,Slægtninge,e,1,0.8420086000114679,4,9.0
69,64,20,Female,Hanne,i,1,0.824515699991025,4,10.0
70,64,20,Female,Ole,e,1,0.6283470999915153,4,11.0
71,64,20,Female,Morten,e,1,0.5705108999973163,4,12.0
72,64,20,Female,Sebastian,e,1,0.5420773000223562,4,13.0
73,64,20,Female,Forældre,i,0,0.853131299954839,4,14.0
74,64,20,Female,Virksomhed,i,1,1.0332816999871284,4,15.0
75,64,20,Female,Familie,e,1,0.6908691000426188,4,16.0
76,64,20,Female,Virksomhed,i,1,0.9409290999174118,4,17.0
77,64,20,Female,Casper,e,1,0.5951416000025347,4,18.0
78,64,20,Female,Line,i,1,0.5130777999293059,4,19.0
79,64,20,Female,Camilla,i,1,0.44379390007816255,4,20.0
80,64,20,Female,Løn,i,1,0.8015193999744952,4,21.0
81,64,20,Female,Hanne,i,1,0.4908391999779269,4,22.0
82,64,20,Female,Mikkel,i,0,0.4407684999750927,4,23.0
83,64,20,Female,Børn,i,0,1.3332200000295416,4,24.0
84,64,20,Female,Mikkel,e,1,0.6456537999911234,4,25.0
85,64,20,Female,Casper,e,1,0.4826183000113815,4,26.0
86,64,20,Female,Akademiker,i,1,1.6492906999774277,4,27.0
87,64,20,Female,Ledelse,i,1,0.5748093000147492,4,28.0
88,64,20,Female,Ruth,i,1,0.5704805999994278,4,29.0
89,64,20,Female,Ole,e,1,0.6625989000312984,4,30.0
90,64,20,Female,Jens,e,1,0.8578105999622494,4,31.0
91,64,20,Female,Forældre,e,1,1.7878096000058576,4,32.0
92,64,20,Female,Børn,e,1,0.4757137999404222,4,33.0
93,64,20,Female,Hjem,e,1,0.4059690999565646,4,34.0
94,64,20,Female,Kontor,i,1,0.7100024999817833,4,35.0
95,64,20,Female,Birthe,i,1,0.7759874000912532,4,36.0
96,64,20,Female,Jens,e,1,0.6044138000579551,4,37.0
97,64,20,Female,Josefine,i,1,0.8123564999550581,4,38.0
98,64,20,Female,Akademiker,i,1,0.845251000020653,4,39.0
99,64,20,Female,Slægtninge,e,1,0.8267262999434024,4,40.0
100,64,20,Female,Familie,i,1,1.231346799992025,5,1.0
101,64,20,Female,Ægteskab,i,1,0.7227654999587685,5,2.0
102,64,20,Female,Handel,e,1,0.6661520999623463,5,3.0
103,64,20,Female,Ledelse,e,1,0.6620275999885052,5,4.0
104,64,20,Female,Forældre,i,1,0.5637944999616593,5,5.0
105,64,20,Female,Kontor,e,1,2.090892000007443,5,6.0
106,64,20,Female,Ledelse,e,1,0.7269468000158668,5,7.0
107,64,20,Female,Børn,i,1,1.294823299976997,5,8.0
108,64,20,Female,Virksomhed,e,1,0.6372372000478208,5,9.0
109,64,20,Female,Løn,e,1,0.8245528000406921,5,10.0
110,64,20,Female,Akademiker,e,1,0.543889099964872,5,11.0
111,64,20,Female,Hjem,e,0,0.4357439000159502,5,12.0
112,64,20,Female,Løn,e,1,0.7294663999928162,5,13.0
113,64,20,Female,Bryllup,i,1,1.067525399965234,5,14.0
114,64,20,Female,Handel,e,1,0.6262337999651209,5,15.0
115,64,20,Female,Bryllup,i,1,0.5595956000033766,5,16.0
116,64,20,Female,Akademiker,e,1,0.9517510000150651,5,17.0
117,64,20,Female,Kontor,i,0,0.584520599921234,5,18.0
118,64,20,Female,Børn,i,1,0.5897163000190631,5,19.0
119,64,20,Female,Karriere,e,1,0.6292551000369713,5,20.0
120,64,20,Female,Bryllup,i,1,0.534130800049752,5,21.0
121,64,20,Female,Slægtninge,i,1,0.5757881000172347,5,22.0
122,64,20,Female,Familie,i,1,0.43196189997252077,5,23.0
123,64,20,Female,Forældre,i,1,0.45140599994920194,5,24.0
124,64,20,Female,Virksomhed,e,1,0.6815418000333011,5,25.0
125,64,20,Female,Hjem,i,1,0.6195246999850497,5,26.0
126,64,20,Female,Ægteskab,i,1,0.5176205000607297,5,27.0
127,64,20,Female,Slægtninge,i,1,0.6022702000336722,5,28.0
128,64,20,Female,Akademiker,e,1,1.1971516999183223,6,1.0
129,64,20,Female,Josefine,i,1,0.5336536999093369,6,2.0
130,64,20,Female,Sebastian,i,0,0.4204453999409452,6,3.0
131,64,20,Female,Løn,e,1,0.9044522999320179,6,4.0
132,64,20,Female,Mette,i,1,0.48731320002116263,6,5.0
133,64,20,Female,Karriere,e,1,0.7039488999871537,6,6.0
134,64,20,Female,Mikkel,e,1,0.5894927999470383,6,7.0
135,64,20,Female,Morten,e,1,0.4481630999362096,6,8.0
136,64,20,Female,Børn,i,1,0.6427774000912905,6,9.0
137,64,20,Female,Handel,i,0,0.5297767000738531,6,10.0
138,64,20,Female,Løn,e,1,0.8043497999897227,6,11.0
139,64,20,Female,Hanne,i,1,0.6298635000130162,6,12.0
140,64,20,Female,Camilla,i,1,0.5120175000047311,6,13.0
141,64,20,Female,Sebastian,i,0,0.49995129997842014,6,14.0
142,64,20,Female,Ruth,i,1,2.021666800021194,6,15.0
143,64,20,Female,Ledelse,e,1,1.1701110999565572,6,16.0
144,64,20,Female,Ruth,i,1,0.6863653999753296,6,17.0
145,64,20,Female,Camilla,i,1,0.5292070999275893,6,18.0
146,64,20,Female,Jens,e,1,0.5967922999989241,6,19.0
147,64,20,Female,Morten,e,1,1.5833336999639869,6,20.0
148,64,20,Female,Birthe,i,1,1.7423740999074653,7,1.0
149,64,20,Female,Løn,e,1,2.7950520999729633,7,2.0
150,64,20,Female,Ægteskab,i,1,0.6886354999151081,7,3.0
151,64,20,Female,Mette,i,1,0.6775930000003427,7,4.0
152,64,20,Female,Jens,e,1,0.5785528999986127,7,5.0
153,64,20,Female,Familie,i,1,0.7719470999436453,7,6.0
154,64,20,Female,Ægteskab,i,1,0.6860544999362901,7,7.0
155,64,20,Female,Camilla,e,0,0.6073700000997633,7,8.0
156,64,20,Female,Slægtninge,i,1,0.9813852000515908,7,9.0
157,64,20,Female,Hanne,i,1,0.5395529000088573,7,10.0
158,64,20,Female,Ole,e,1,0.6175495999632403,7,11.0
159,64,20,Female,Morten,e,1,0.6146937999874353,7,12.0
160,64,20,Female,Sebastian,e,1,0.43399910000152886,7,13.0
161,64,20,Female,Forældre,i,1,1.8272305999416858,7,14.0
162,64,20,Female,Virksomhed,e,1,2.3235368999885395,7,15.0
163,64,20,Female,Familie,i,1,1.4801753000356257,7,16.0
164,64,20,Female,Virksomhed,i,0,0.46862060006242245,7,17.0
165,64,20,Female,Casper,e,1,1.2497461999300867,7,18.0
166,64,20,Female,Line,i,1,0.5440017000073567,7,19.0
167,64,20,Female,Camilla,i,1,0.4425639999099076,7,20.0
168,64,20,Female,Løn,e,1,0.7517235000850633,7,21.0
169,64,20,Female,Hanne,i,1,0.5944094000151381,7,22.0
170,64,20,Female,Mikkel,e,1,0.5839154000859708,7,23.0
171,64,20,Female,Børn,i,1,0.7934170999797061,7,24.0
172,64,20,Female,Mikkel,e,1,0.6280799000523984,7,25.0
173,64,20,Female,Casper,e,1,0.47983069997280836,7,26.0
174,64,20,Female,Akademiker,e,1,0.6754975999938324,7,27.0
175,64,20,Female,Ledelse,e,1,0.6852331999689341,7,28.0
176,64,20,Female,Ruth,i,1,0.561161500052549,7,29.0
177,64,20,Female,Ole,e,1,0.9559103000210598,7,30.0
178,64,20,Female,Jens,e,1,1.0682350000133738,7,31.0
179,64,20,Female,Forældre,i,1,0.767379300086759,7,32.0
180,64,20,Female,Børn,i,1,0.5691112000495195,7,33.0
181,64,20,Female,Hjem,i,1,0.46541960001923144,7,34.0
182,64,20,Female,Kontor,e,1,0.9025756000773981,7,35.0
183,64,20,Female,Birthe,i,1,1.1828426000429317,7,36.0
184,64,20,Female,Jens,e,1,0.6751487000146881,7,37.0
185,64,20,Female,Josefine,i,1,0.5563965999754146,7,38.0
186,64,20,Female,Akademiker,e,1,0.6797130999621004,7,39.0
187,64,20,Female,Slægtninge,i,1,0.6365612000226974,7,40.0
