,ID,age,gender,word,response,correct,rt,block,trial
0,63,23,Male,Familie,e,1,2.0853574000066146,1,1.0
1,63,23,Male,Kontor,i,1,0.7531490999972448,1,2.0
2,63,23,Male,Handel,i,1,0.8337614999618381,1,3.0
3,63,23,Male,Børn,e,1,0.6965679000131786,1,4.0
4,63,23,Male,Akademiker,i,1,2.7753574000671506,1,5.0
5,63,23,Male,Forældre,e,1,1.5847794000292197,1,6.0
6,63,23,Male,Hjem,e,1,1.626990900025703,1,7.0
7,63,23,Male,Ægteskab,e,1,0.666348599945195,1,8.0
8,63,23,Male,Karriere,i,1,0.7825235999189317,1,9.0
9,63,23,Male,Bryllup,e,1,0.8218262000009418,1,10.0
10,63,23,Male,Kontor,i,1,0.6611873999936506,1,11.0
11,63,23,Male,Løn,i,1,0.7324053000193089,1,12.0
12,63,23,Male,Hjem,e,1,0.7526118000969291,1,13.0
13,63,23,Male,Virksomhed,i,1,1.4840340000810102,1,14.0
14,63,23,Male,Akademiker,i,1,0.799832500051707,1,15.0
15,63,23,Male,Hjem,e,1,1.1046869000419974,1,16.0
16,63,23,Male,Kontor,i,1,0.6881408999906853,1,17.0
17,63,23,Male,Hjem,e,1,1.6906625999836251,1,18.0
18,63,23,Male,Karriere,i,1,1.2794768000021577,1,19.0
19,63,23,Male,Ledelse,i,1,1.0831934000598267,1,20.0
20,63,23,Male,Line,i,1,1.1317495999392122,2,1.0
21,63,23,Male,Rasmus,e,1,0.6653407000703737,2,2.0
22,63,23,Male,Casper,e,1,0.9282233000267297,2,3.0
23,63,23,Male,Morten,e,1,0.5209987000562251,2,4.0
24,63,23,Male,Ruth,i,1,0.6246074000373483,2,5.0
25,63,23,Male,Josefine,i,1,0.48608609999064356,2,6.0
26,63,23,Male,Hanne,i,1,0.5129677000222728,2,7.0
27,63,23,Male,Birthe,i,1,0.48970909998752177,2,8.0
28,63,23,Male,Mikkel,e,1,0.579370699939318,2,9.0
29,63,23,Male,Camilla,i,1,0.6578300000401214,2,10.0
30,63,23,Male,Sebastian,e,1,0.7022985999938101,2,11.0
31,63,23,Male,Jens,e,1,0.6001013000495732,2,12.0
32,63,23,Male,Mikkel,e,1,0.8250185999786481,2,13.0
33,63,23,Male,Birthe,i,1,0.7077332999324426,2,14.0
34,63,23,Male,Camilla,i,1,0.4129498000256717,2,15.0
35,63,23,Male,Ole,e,1,0.6598057999508455,2,16.0
36,63,23,Male,Hanne,i,1,0.7616378999082372,2,17.0
37,63,23,Male,Jens,e,1,0.6021249999757856,2,18.0
38,63,23,Male,Ole,e,1,0.5245710000162944,2,19.0
39,63,23,Male,Ruth,e,0,0.6076859999448061,2,20.0
40,63,23,Male,Børn,e,1,1.6173106000060216,3,1.0
41,63,23,Male,Handel,i,1,1.5669322999892756,3,2.0
42,63,23,Male,Hjem,e,1,1.7858467999612913,3,3.0
43,63,23,Male,Ægteskab,e,1,1.447054099990055,3,4.0
44,63,23,Male,Handel,i,1,0.7346130999503657,3,5.0
45,63,23,Male,Ole,e,1,1.1922497999621555,3,6.0
46,63,23,Male,Camilla,i,1,0.8191912999609485,3,7.0
47,63,23,Male,Line,i,1,0.8765250999713317,3,8.0
48,63,23,Male,Hanne,i,1,0.7107989999931306,3,9.0
49,63,23,Male,Jens,e,1,0.77988429996185,3,10.0
50,63,23,Male,Løn,i,1,1.0181919999886304,3,11.0
51,63,23,Male,Camilla,i,1,1.3878160999156535,3,12.0
52,63,23,Male,Morten,e,1,0.9440011000260711,3,13.0
53,63,23,Male,Karriere,i,1,0.8936718000331894,3,14.0
54,63,23,Male,Handel,i,1,0.7794080000603572,3,15.0
55,63,23,Male,Josefine,i,1,0.7662369000026956,3,16.0
56,63,23,Male,Sebastian,e,1,0.6985608000541106,3,17.0
57,63,23,Male,Kontor,i,1,0.7292367999907583,3,18.0
58,63,23,Male,Casper,e,1,0.9696725000394508,3,19.0
59,63,23,Male,Familie,e,1,1.28450760000851,3,20.0
60,63,23,Male,Birthe,i,1,1.0317538999952376,4,1.0
61,63,23,Male,Akademiker,i,1,1.4109239999670535,4,2.0
62,63,23,Male,Familie,e,1,0.7317167998990044,4,3.0
63,63,23,Male,Morten,e,1,0.6845277999527752,4,4.0
64,63,23,Male,Sebastian,e,1,0.629644799977541,4,5.0
65,63,23,Male,Ole,e,1,0.6775008999975398,4,6.0
66,63,23,Male,Bryllup,i,0,0.6707345000468194,4,7.0
67,63,23,Male,Ægteskab,e,1,1.8090385999530554,4,8.0
68,63,23,Male,Josefine,i,1,0.9375946999061853,4,9.0
69,63,23,Male,Mikkel,e,1,0.7411908000940457,4,10.0
70,63,23,Male,Ruth,i,1,0.7809594999998808,4,11.0
71,63,23,Male,Hjem,e,1,1.1292175999842584,4,12.0
72,63,23,Male,Virksomhed,i,1,0.7136706999735907,4,13.0
73,63,23,Male,Morten,e,1,1.1368506000144407,4,14.0
74,63,23,Male,Ole,e,1,0.6418806000147015,4,15.0
75,63,23,Male,Line,i,1,0.6215084999566898,4,16.0
76,63,23,Male,Kontor,i,1,0.8614557000109926,4,17.0
77,63,23,Male,Mette,i,1,0.5897355999331921,4,18.0
78,63,23,Male,Familie,e,1,0.748624200001359,4,19.0
79,63,23,Male,Løn,i,1,0.6465650000609457,4,20.0
80,63,23,Male,Rasmus,e,1,0.6888313998933882,4,21.0
81,63,23,Male,Familie,e,1,0.9797539999708533,4,22.0
82,63,23,Male,Ledelse,i,1,0.6507745999842882,4,23.0
83,63,23,Male,Forældre,e,1,0.8621464000316337,4,24.0
84,63,23,Male,Camilla,i,1,0.968081200029701,4,25.0
85,63,23,Male,Jens,e,1,0.6620621000183746,4,26.0
86,63,23,Male,Virksomhed,e,0,1.1445338000776246,4,27.0
87,63,23,Male,Hanne,i,1,1.5450397001113743,4,28.0
88,63,23,Male,Børn,e,1,1.1923402999527752,4,29.0
89,63,23,Male,Karriere,i,1,1.105672899982892,4,30.0
90,63,23,Male,Ruth,i,1,0.8367290999740362,4,31.0
91,63,23,Male,Ægteskab,e,1,1.7127827000804245,4,32.0
92,63,23,Male,Løn,i,1,0.6761576000135392,4,33.0
93,63,23,Male,Line,i,1,0.7516014999710023,4,34.0
94,63,23,Male,Jens,e,1,0.6432349000824615,4,35.0
95,63,23,Male,Børn,e,1,0.9087529999669641,4,36.0
96,63,23,Male,Camilla,i,1,0.7786759999580681,4,37.0
97,63,23,Male,Rasmus,e,1,0.814242499996908,4,38.0
98,63,23,Male,Forældre,e,1,0.8869688999839127,4,39.0
99,63,23,Male,Hjem,e,1,0.699923999956809,4,40.0
100,63,23,Male,Virksomhed,e,1,1.0010141000384465,5,1.0
101,63,23,Male,Handel,e,1,0.9727316999342293,5,2.0
102,63,23,Male,Slægtninge,i,1,1.0471303999656811,5,3.0
103,63,23,Male,Hjem,i,1,0.6509362999349833,5,4.0
104,63,23,Male,Karriere,e,1,1.1607373000588268,5,5.0
105,63,23,Male,Kontor,e,1,0.7001485000364482,5,6.0
106,63,23,Male,Ledelse,e,1,0.5503240999532863,5,7.0
107,63,23,Male,Forældre,i,1,0.7098737999331206,5,8.0
108,63,23,Male,Løn,e,1,0.6349083000095561,5,9.0
109,63,23,Male,Forældre,i,1,0.5742143000243232,5,10.0
110,63,23,Male,Familie,i,1,0.7324277000734583,5,11.0
111,63,23,Male,Ægteskab,i,1,0.5765355000039563,5,12.0
112,63,23,Male,Akademiker,e,1,0.6343221999704838,5,13.0
113,63,23,Male,Virksomhed,e,1,0.6876457999460399,5,14.0
114,63,23,Male,Børn,i,1,0.6166577000403777,5,15.0
115,63,23,Male,Ægteskab,i,1,0.5189722999930382,5,16.0
116,63,23,Male,Ledelse,e,1,0.8264351999387145,5,17.0
117,63,23,Male,Løn,e,1,0.8825956999789923,5,18.0
118,63,23,Male,Børn,i,1,0.5718342999462038,5,19.0
119,63,23,Male,Karriere,e,1,0.7270642999792472,5,20.0
120,63,23,Male,Familie,i,1,0.5171829999890178,5,21.0
121,63,23,Male,Kontor,e,1,1.0726469999644905,5,22.0
122,63,23,Male,Handel,e,1,0.7825653000036255,5,23.0
123,63,23,Male,Akademiker,e,1,0.5682545999297872,5,24.0
124,63,23,Male,Hjem,e,0,0.5344824000494555,5,25.0
125,63,23,Male,Bryllup,i,1,1.7256311000091955,5,26.0
126,63,23,Male,Hjem,i,1,0.5594567999942228,5,27.0
127,63,23,Male,Slægtninge,i,1,0.7193602999905124,5,28.0
128,63,23,Male,Børn,i,1,1.3925720999250188,6,1.0
129,63,23,Male,Handel,e,1,1.0484043000033125,6,2.0
130,63,23,Male,Hjem,i,1,1.4290847000665963,6,3.0
131,63,23,Male,Ægteskab,i,1,1.0599178000120446,6,4.0
132,63,23,Male,Handel,e,1,0.9677322000497952,6,5.0
133,63,23,Male,Ole,e,1,0.5753529000794515,6,6.0
134,63,23,Male,Camilla,i,1,0.8548950999975204,6,7.0
135,63,23,Male,Line,i,1,0.4576058000093326,6,8.0
136,63,23,Male,Hanne,i,1,0.4412450999952853,6,9.0
137,63,23,Male,Jens,e,1,0.6370482000056654,6,10.0
138,63,23,Male,Løn,e,1,1.2416400000220165,6,11.0
139,63,23,Male,Camilla,i,1,0.8582450000103563,6,12.0
140,63,23,Male,Morten,e,1,0.6729199000401422,6,13.0
141,63,23,Male,Karriere,e,1,1.7636255000252277,6,14.0
142,63,23,Male,Handel,e,1,1.0662017000140622,6,15.0
143,63,23,Male,Josefine,i,1,0.7409655000083148,6,16.0
144,63,23,Male,Sebastian,e,1,0.6547495999839157,6,17.0
145,63,23,Male,Kontor,e,1,1.0667321999790147,6,18.0
146,63,23,Male,Casper,e,1,0.9713788999943063,6,19.0
147,63,23,Male,Familie,i,1,1.0229423999553546,6,20.0
148,63,23,Male,Birthe,i,1,1.043226399924606,7,1.0
149,63,23,Male,Akademiker,e,1,0.7841472000582144,7,2.0
150,63,23,Male,Familie,i,1,0.7212213999591768,7,3.0
151,63,23,Male,Morten,e,1,0.7332226999569684,7,4.0
152,63,23,Male,Sebastian,e,1,0.5646022000582889,7,5.0
153,63,23,Male,Ole,e,1,0.5612052999204025,7,6.0
154,63,23,Male,Bryllup,i,1,0.8335565000306815,7,7.0
155,63,23,Male,Ægteskab,i,1,0.5534860000479966,7,8.0
156,63,23,Male,Josefine,i,1,1.3479941000696272,7,9.0
157,63,23,Male,Mikkel,e,1,0.7506620999192819,7,10.0
158,63,23,Male,Ruth,i,1,0.6378717999905348,7,11.0
159,63,23,Male,Hjem,i,1,0.9292618000181392,7,12.0
160,63,23,Male,Virksomhed,e,1,0.6043557999655604,7,13.0
161,63,23,Male,Morten,e,1,0.5072053000330925,7,14.0
162,63,23,Male,Ole,e,1,0.5342760999919847,7,15.0
163,63,23,Male,Line,i,1,0.5897946000332013,7,16.0
164,63,23,Male,Kontor,e,1,0.6659418999915943,7,17.0
165,63,23,Male,Mette,i,1,0.5234292999375612,7,18.0
166,63,23,Male,Familie,i,1,0.8933352999156341,7,19.0
167,63,23,Male,Løn,e,1,0.7805052000330761,7,20.0
168,63,23,Male,Rasmus,e,1,0.8653288000496104,7,21.0
169,63,23,Male,Familie,e,0,0.7457824000157416,7,22.0
170,63,23,Male,Ledelse,e,1,1.5115099999820814,7,23.0
171,63,23,Male,Forældre,i,1,1.5481253999751061,7,24.0
172,63,23,Male,Camilla,i,1,0.7262363999616355,7,25.0
173,63,23,Male,Jens,e,1,0.7475146999349818,7,26.0
174,63,23,Male,Virksomhed,e,1,1.2642993000335991,7,27.0
175,63,23,Male,Hanne,i,1,0.9234642999945208,7,28.0
176,63,23,Male,Børn,i,1,1.9090112999547273,7,29.0
177,63,23,Male,Karriere,e,1,1.2861249999841675,7,30.0
178,63,23,Male,Ruth,i,1,1.1060662999516353,7,31.0
179,63,23,Male,Ægteskab,i,1,0.8227294000098482,7,32.0
180,63,23,Male,Løn,e,1,0.7188442000187933,7,33.0
181,63,23,Male,Line,i,1,0.839497399982065,7,34.0
182,63,23,Male,Jens,e,1,0.6981593000236899,7,35.0
183,63,23,Male,Børn,i,1,1.7848740000044927,7,36.0
184,63,23,Male,Camilla,i,1,0.6474080999614671,7,37.0
185,63,23,Male,Rasmus,e,1,0.6148572000674903,7,38.0
186,63,23,Male,Forældre,i,1,0.5912357999477535,7,39.0
187,63,23,Male,Hjem,i,1,0.5404966999776661,7,40.0
