,ID,age,gender,word,response,correct,rt,block,trial
0,56,22,Female,Hjem,e,1,2.1454533791766153,1,1.0
1,56,22,Female,Karriere,i,1,1.350915567643824,1,2.0
2,56,22,Female,Løn,i,1,1.0220694137969986,1,3.0
3,56,22,Female,Kontor,i,1,1.2454131814374705,1,4.0
4,56,22,Female,Ledelse,i,1,0.8482954448263627,1,5.0
5,56,22,Female,Akademiker,i,1,1.500776586097345,1,6.0
6,56,22,Female,Ægteskab,e,1,0.581791707292723,1,7.0
7,56,22,Female,Forældre,e,1,0.8191460973976064,1,8.0
8,56,22,Female,Løn,i,1,0.7650412240654987,1,9.0
9,56,22,Female,Hjem,e,1,0.841239886420226,1,10.0
10,56,22,Female,Ledelse,i,1,0.9016622192575596,1,11.0
11,56,22,Female,Familie,e,1,0.6046710627597349,1,12.0
12,56,22,Female,Forældre,e,1,0.5122573168446252,1,13.0
13,56,22,Female,Akademiker,i,1,0.5161851490738627,1,14.0
14,56,22,Female,Virksomhed,i,1,0.6791596106813813,1,15.0
15,56,22,Female,Familie,e,1,0.5405531037795299,1,16.0
16,56,22,Female,Handel,i,1,0.9976497151947115,1,17.0
17,56,22,Female,Bryllup,e,1,0.6187920151896833,1,18.0
18,56,22,Female,Slægtninge,e,1,0.6747301619870996,1,19.0
19,56,22,Female,Handel,i,1,0.7316026923908794,1,20.0
20,56,22,Female,Mette,i,1,0.7840213988820324,2,1.0
21,56,22,Female,Sebastian,e,1,0.45684986572450725,2,2.0
22,56,22,Female,Mikkel,e,1,0.6018131745950086,2,3.0
23,56,22,Female,Mette,i,1,0.6501637844048673,2,4.0
24,56,22,Female,Birthe,i,1,0.5349010451427603,2,5.0
25,56,22,Female,Josefine,i,1,0.5805626828150707,2,6.0
26,56,22,Female,Sebastian,e,1,0.5217243119332124,2,7.0
27,56,22,Female,Casper,e,1,0.5388712132880755,2,8.0
28,56,22,Female,Ruth,i,1,0.6055395904950274,2,9.0
29,56,22,Female,Ole,e,1,0.5483506098062207,2,10.0
30,56,22,Female,Birthe,i,1,0.6154598792381876,2,11.0
31,56,22,Female,Casper,e,1,0.5172811789052503,2,12.0
32,56,22,Female,Ruth,i,1,0.5897795111268351,2,13.0
33,56,22,Female,Jens,e,1,0.5037435213234858,2,14.0
34,56,22,Female,Hanne,i,1,0.7409918578196084,2,15.0
35,56,22,Female,Camilla,i,1,0.5614790202016593,2,16.0
36,56,22,Female,Rasmus,e,1,0.4980619558336912,2,17.0
37,56,22,Female,Mikkel,e,1,0.40186962248480995,2,18.0
38,56,22,Female,Ole,e,1,0.6109141136803373,2,19.0
39,56,22,Female,Rasmus,e,1,0.38256102359082433,2,20.0
40,56,22,Female,Kontor,i,1,1.5422294350064476,3,1.0
41,56,22,Female,Line,i,1,0.9664058089983882,3,2.0
42,56,22,Female,Hanne,i,1,0.6809821932547493,3,3.0
43,56,22,Female,Akademiker,i,1,2.2891850977575814,3,4.0
44,56,22,Female,Løn,i,1,2.371440789585904,3,5.0
45,56,22,Female,Line,i,1,0.691290775048401,3,6.0
46,56,22,Female,Sebastian,e,1,0.6220480320225761,3,7.0
47,56,22,Female,Karriere,i,1,1.0466165477846516,3,8.0
48,56,22,Female,Virksomhed,i,1,0.9062695643224288,3,9.0
49,56,22,Female,Ægteskab,e,1,0.6637185474064609,3,10.0
50,56,22,Female,Slægtninge,e,1,1.3379355467768619,3,11.0
51,56,22,Female,Josefine,i,1,0.5853710165756638,3,12.0
52,56,22,Female,Hanne,i,1,1.1358285865790094,3,13.0
53,56,22,Female,Mette,i,1,1.1966387848297018,3,14.0
54,56,22,Female,Casper,e,1,0.48928388156127767,3,15.0
55,56,22,Female,Sebastian,e,1,0.40756102358864155,3,16.0
56,56,22,Female,Forældre,e,1,0.8997630899211799,3,17.0
57,56,22,Female,Jens,e,1,0.533873009357194,3,18.0
58,56,22,Female,Camilla,i,1,0.6028283813138842,3,19.0
59,56,22,Female,Handel,i,1,0.655362549390702,3,20.0
60,56,22,Female,Camilla,i,1,0.6876045568824338,4,1.0
61,56,22,Female,Morten,e,1,0.5186337900486251,4,2.0
62,56,22,Female,Slægtninge,e,1,0.7273323241133767,4,3.0
63,56,22,Female,Rasmus,e,1,0.6559740681841504,4,4.0
64,56,22,Female,Mette,i,1,0.5405513932346366,4,5.0
65,56,22,Female,Mikkel,e,1,0.5468838199849415,4,6.0
66,56,22,Female,Akademiker,i,1,0.8200394279956527,4,7.0
67,56,22,Female,Ægteskab,e,1,0.5440002736868337,4,8.0
68,56,22,Female,Karriere,i,1,1.332656386308372,4,9.0
69,56,22,Female,Akademiker,i,1,1.086933596758172,4,10.0
70,56,22,Female,Mette,i,1,0.5723674757500703,4,11.0
71,56,22,Female,Handel,i,1,0.8574301671178546,4,12.0
72,56,22,Female,Mikkel,e,1,0.47353577598551055,4,13.0
73,56,22,Female,Casper,e,1,0.46180487846868346,4,14.0
74,56,22,Female,Line,e,0,0.4166444296206464,4,15.0
75,56,22,Female,Hjem,e,1,2.59566121003445,4,16.0
76,56,22,Female,Løn,i,1,0.9366043174086371,4,17.0
77,56,22,Female,Ledelse,i,1,0.7981607396359323,4,18.0
78,56,22,Female,Karriere,i,1,0.6420630847896973,4,19.0
79,56,22,Female,Ægteskab,e,1,0.555318930568319,4,20.0
80,56,22,Female,Virksomhed,i,1,0.7503066146637138,4,21.0
81,56,22,Female,Løn,i,1,0.5807974547133199,4,22.0
82,56,22,Female,Sebastian,e,1,0.5306388019380393,4,23.0
83,56,22,Female,Josefine,i,1,0.5686449085733329,4,24.0
84,56,22,Female,Forældre,e,1,1.5281837464281125,4,25.0
85,56,22,Female,Virksomhed,i,1,0.6385645986192685,4,26.0
86,56,22,Female,Ledelse,i,1,0.6232915961081744,4,27.0
87,56,22,Female,Forældre,e,1,0.6944787978318345,4,28.0
88,56,22,Female,Jens,e,1,0.7339166281781218,4,29.0
89,56,22,Female,Hjem,e,1,1.2356947366642999,4,30.0
90,56,22,Female,Bryllup,e,1,0.5657827440518304,4,31.0
91,56,22,Female,Familie,e,1,0.5633460768694931,4,32.0
92,56,22,Female,Kontor,i,1,0.635425326287077,4,33.0
93,56,22,Female,Ole,e,1,0.61499589469895,4,34.0
94,56,22,Female,Børn,e,1,0.8825828330009244,4,35.0
95,56,22,Female,Ole,e,1,0.5011494842729007,4,36.0
96,56,22,Female,Sebastian,e,1,0.49168377208479797,4,37.0
97,56,22,Female,Familie,e,1,0.57991780845623,4,38.0
98,56,22,Female,Handel,i,1,0.5630219291488174,4,39.0
99,56,22,Female,Camilla,i,1,0.5746749970057863,4,40.0
100,56,22,Female,Slægtninge,i,1,1.4067459502912243,5,1.0
101,56,22,Female,Handel,e,1,0.6761387933802325,5,2.0
102,56,22,Female,Slægtninge,i,1,0.729046287269739,5,3.0
103,56,22,Female,Ledelse,e,1,2.154794221787597,5,4.0
104,56,22,Female,Forældre,i,1,1.2153884641047625,5,5.0
105,56,22,Female,Kontor,e,1,0.5915353825621423,5,6.0
106,56,22,Female,Bryllup,i,1,0.5372936658641265,5,7.0
107,56,22,Female,Børn,i,1,0.7057452831795672,5,8.0
108,56,22,Female,Kontor,e,1,0.698725218520849,5,9.0
109,56,22,Female,Løn,e,1,0.5442752433227724,5,10.0
110,56,22,Female,Børn,i,1,0.6327359265160339,5,11.0
111,56,22,Female,Familie,i,1,0.602385350917757,5,12.0
112,56,22,Female,Akademiker,e,1,0.49986615008310764,5,13.0
113,56,22,Female,Virksomhed,i,0,0.548291168470314,5,14.0
114,56,22,Female,Ægteskab,i,1,0.797651853372372,5,15.0
115,56,22,Female,Hjem,i,1,0.5272621918884397,5,16.0
116,56,22,Female,Ægteskab,i,1,0.46818220693967305,5,17.0
117,56,22,Female,Bryllup,i,1,0.5371149142156355,5,18.0
118,56,22,Female,Familie,i,1,0.5506063871653168,5,19.0
119,56,22,Female,Karriere,e,1,0.5260861942151678,5,20.0
120,56,22,Female,Forældre,i,1,0.6885633157144184,5,21.0
121,56,22,Female,Hjem,i,1,2.4730747848989267,5,22.0
122,56,22,Female,Virksomhed,e,1,1.2193244214104197,5,23.0
123,56,22,Female,Bryllup,i,1,0.7009780024272914,5,24.0
124,56,22,Female,Børn,i,1,1.6473738902859623,5,25.0
125,56,22,Female,Forældre,i,1,0.7646277005187585,5,26.0
126,56,22,Female,Handel,e,1,0.5587220540182898,5,27.0
127,56,22,Female,Karriere,e,1,0.5227685978679801,5,28.0
128,56,22,Female,Kontor,e,1,0.4804677477295627,6,1.0
129,56,22,Female,Line,i,1,0.5342116966858157,6,2.0
130,56,22,Female,Hanne,i,1,0.47255691828831914,6,3.0
131,56,22,Female,Akademiker,e,1,1.0249144728950341,6,4.0
132,56,22,Female,Løn,e,1,0.7573129949887516,6,5.0
133,56,22,Female,Line,i,1,0.7280704230179253,6,6.0
134,56,22,Female,Sebastian,e,1,0.5057328817492817,6,7.0
135,56,22,Female,Karriere,e,1,1.31274353842673,6,8.0
136,56,22,Female,Virksomhed,e,1,0.48789278322146856,6,9.0
137,56,22,Female,Ægteskab,i,1,0.731461572671833,6,10.0
138,56,22,Female,Slægtninge,i,1,0.685213219068828,6,11.0
139,56,22,Female,Josefine,i,1,0.5420442688264302,6,12.0
140,56,22,Female,Hanne,i,1,0.44396820102338097,6,13.0
141,56,22,Female,Mette,i,1,0.49104659516888205,6,14.0
142,56,22,Female,Casper,i,0,0.5274460751643346,6,15.0
143,56,22,Female,Sebastian,e,1,0.4827466174028814,6,16.0
144,56,22,Female,Forældre,e,0,0.8668360103329178,6,17.0
145,56,22,Female,Jens,e,1,2.0888553907752794,6,18.0
146,56,22,Female,Camilla,i,1,0.5334167222572432,6,19.0
147,56,22,Female,Handel,e,1,1.0599305519936024,6,20.0
148,56,22,Female,Camilla,i,1,0.6302406732720556,7,1.0
149,56,22,Female,Morten,e,1,0.9449188347789459,7,2.0
150,56,22,Female,Slægtninge,i,1,0.9257051709682855,7,3.0
151,56,22,Female,Rasmus,e,1,2.0390593729134707,7,4.0
152,56,22,Female,Mette,i,1,0.5161564974951034,7,5.0
153,56,22,Female,Mikkel,e,1,0.6272497904574266,7,6.0
154,56,22,Female,Akademiker,e,1,1.8442140914448828,7,7.0
155,56,22,Female,Ægteskab,i,1,0.5989185097787413,7,8.0
156,56,22,Female,Karriere,e,1,1.842738748906413,7,9.0
157,56,22,Female,Akademiker,e,1,0.7427105249626038,7,10.0
158,56,22,Female,Mette,i,1,0.6809543969502556,7,11.0
159,56,22,Female,Handel,e,1,0.8396785891454783,7,12.0
160,56,22,Female,Mikkel,e,1,0.5923872325147386,7,13.0
161,56,22,Female,Casper,e,1,0.4166709430210176,7,14.0
162,56,22,Female,Line,i,1,0.6439673457534809,7,15.0
163,56,22,Female,Hjem,i,1,2.832272369614657,7,16.0
164,56,22,Female,Løn,e,1,0.5349938420476974,7,17.0
165,56,22,Female,Ledelse,e,1,0.7242088742932538,7,18.0
166,56,22,Female,Karriere,e,1,0.590245206207328,7,19.0
167,56,22,Female,Ægteskab,i,1,0.5744603239763819,7,20.0
168,56,22,Female,Virksomhed,e,1,0.6695788645447465,7,21.0
169,56,22,Female,Løn,e,1,0.9591283077606931,7,22.0
170,56,22,Female,Sebastian,e,1,0.8929919091351621,7,23.0
171,56,22,Female,Josefine,i,1,0.592481739964569,7,24.0
172,56,22,Female,Forældre,i,1,0.633338464958797,7,25.0
173,56,22,Female,Virksomhed,e,1,0.8201749884538003,7,26.0
174,56,22,Female,Ledelse,e,1,0.49471613554487703,7,27.0
175,56,22,Female,Forældre,i,1,0.7836151451410842,7,28.0
176,56,22,Female,Jens,e,1,0.7389392073346244,7,29.0
177,56,22,Female,Hjem,i,1,0.977133045962546,7,30.0
178,56,22,Female,Bryllup,i,1,0.5592193941265577,7,31.0
179,56,22,Female,Familie,i,1,0.8095811737730401,7,32.0
180,56,22,Female,Kontor,e,1,0.546081575750577,7,33.0
181,56,22,Female,Ole,e,1,0.583205042679765,7,34.0
182,56,22,Female,Børn,i,1,0.7206257162870315,7,35.0
183,56,22,Female,Ole,e,1,0.5637690083967755,7,36.0
184,56,22,Female,Sebastian,e,1,0.5080211594067805,7,37.0
185,56,22,Female,Familie,i,1,0.6795680026007176,7,38.0
186,56,22,Female,Handel,e,1,0.53326790509891,7,39.0
187,56,22,Female,Camilla,i,1,0.6163001830282155,7,40.0
