,ID,age,gender,word,response,correct,rt,block,trial
0,20,21,Female,Slægtninge,e,1,0.6955725090083433,1,1.0
1,20,21,Female,Akademiker,i,1,0.7916826572036371,1,2.0
2,20,21,Female,Virksomhed,i,1,1.010658625877113,1,3.0
3,20,21,Female,Kontor,i,1,0.7569132690841798,1,4.0
4,20,21,Female,Virksomhed,i,1,0.7649033338238951,1,5.0
5,20,21,Female,Handel,i,1,0.7384649436717154,1,6.0
6,20,21,Female,Karriere,i,1,1.0649522425810574,1,7.0
7,20,21,Female,Løn,i,1,0.8007343451899942,1,8.0
8,20,21,Female,Hjem,e,1,0.6957251256972086,1,9.0
9,20,21,Female,Slægtninge,e,1,0.7877253327606013,1,10.0
10,20,21,Female,Forældre,e,1,0.6646542383823544,1,11.0
11,20,21,Female,Ledelse,i,1,0.7157063119084341,1,12.0
12,20,21,Female,Bryllup,e,1,0.7862071981508052,1,13.0
13,20,21,Female,Akademiker,i,1,0.650461777113378,1,14.0
14,20,21,Female,Familie,e,1,0.9994854764227057,1,15.0
15,20,21,Female,Børn,e,1,0.6921158744517015,1,16.0
16,20,21,Female,Kontor,i,1,0.6137583515228471,1,17.0
17,20,21,Female,Løn,i,1,0.68790954380529,1,18.0
18,20,21,Female,Akademiker,i,1,0.6420205559552414,1,19.0
19,20,21,Female,Hjem,i,0,0.9648624575493159,1,20.0
20,20,21,Female,Mikkel,e,1,1.0206028092216002,2,1.0
21,20,21,Female,Rasmus,e,1,0.7247740648017498,2,2.0
22,20,21,Female,Birthe,i,1,0.6646198773087235,2,3.0
23,20,21,Female,Ole,e,1,0.743536102338112,2,4.0
24,20,21,Female,Josefine,i,1,0.6556266477709869,2,5.0
25,20,21,Female,Camilla,i,1,0.7046661442582263,2,6.0
26,20,21,Female,Hanne,i,1,0.5767894085729495,2,7.0
27,20,21,Female,Camilla,i,1,0.5548081402812386,2,8.0
28,20,21,Female,Hanne,i,1,0.65002534686937,2,9.0
29,20,21,Female,Ole,e,1,0.5853118468075991,2,10.0
30,20,21,Female,Jens,e,1,0.5923496189934667,2,11.0
31,20,21,Female,Mikkel,e,1,0.6736983401351608,2,12.0
32,20,21,Female,Sebastian,e,1,0.527833360407385,2,13.0
33,20,21,Female,Line,i,1,0.6409147541999118,2,14.0
34,20,21,Female,Mette,i,1,0.6520508651010459,2,15.0
35,20,21,Female,Camilla,i,1,0.5758179273689166,2,16.0
36,20,21,Female,Morten,e,1,0.7114727601438062,2,17.0
37,20,21,Female,Line,i,1,0.6073372936371015,2,18.0
38,20,21,Female,Ruth,i,1,0.7992559266276658,2,19.0
39,20,21,Female,Josefine,i,1,1.1418005558516597,2,20.0
40,20,21,Female,Birthe,i,1,1.000644381652819,3,1.0
41,20,21,Female,Familie,i,0,0.9630837142904056,3,2.0
42,20,21,Female,Casper,e,1,1.0629280630964786,3,3.0
43,20,21,Female,Jens,e,1,0.6741013017890509,3,4.0
44,20,21,Female,Morten,e,1,0.7316453866078518,3,5.0
45,20,21,Female,Hjem,e,1,2.228242301789578,3,6.0
46,20,21,Female,Josefine,i,1,1.1393573497916805,3,7.0
47,20,21,Female,Bryllup,e,1,1.300385825743433,3,8.0
48,20,21,Female,Jens,e,1,0.6935228934016777,3,9.0
49,20,21,Female,Sebastian,e,1,0.7042868337302934,3,10.0
50,20,21,Female,Børn,e,1,1.454288618726423,3,11.0
51,20,21,Female,Virksomhed,i,1,0.8131248583085835,3,12.0
52,20,21,Female,Ægteskab,e,1,1.0426693108311156,3,13.0
53,20,21,Female,Line,i,1,0.9904895694053266,3,14.0
54,20,21,Female,Virksomhed,i,1,0.852455343992915,3,15.0
55,20,21,Female,Forældre,e,1,0.7765548608003883,3,16.0
56,20,21,Female,Akademiker,i,1,0.7310362585267285,3,17.0
57,20,21,Female,Slægtninge,e,1,0.7081647260929458,3,18.0
58,20,21,Female,Karriere,i,1,0.737061048464966,3,19.0
59,20,21,Female,Hanne,i,1,0.6029645125963725,3,20.0
60,20,21,Female,Ruth,i,1,0.8081643690820783,4,1.0
61,20,21,Female,Rasmus,e,1,0.6569073786231456,4,2.0
62,20,21,Female,Familie,e,1,0.8805042420426616,4,3.0
63,20,21,Female,Morten,e,1,0.6546172355156159,4,4.0
64,20,21,Female,Ole,e,1,0.5962069839442847,4,5.0
65,20,21,Female,Forældre,e,1,1.0145784655178431,4,6.0
66,20,21,Female,Hanne,i,1,0.8070068025990622,4,7.0
67,20,21,Female,Rasmus,e,1,0.7012193271657452,4,8.0
68,20,21,Female,Casper,e,1,0.7261757287633372,4,9.0
69,20,21,Female,Josefine,i,1,0.6687418671353953,4,10.0
70,20,21,Female,Ole,e,1,0.5803834874095628,4,11.0
71,20,21,Female,Slægtninge,e,1,0.7471243799373042,4,12.0
72,20,21,Female,Ruth,i,1,0.7374644563824404,4,13.0
73,20,21,Female,Virksomhed,i,1,0.6299500024178997,4,14.0
74,20,21,Female,Camilla,i,1,0.6359310600819299,4,15.0
75,20,21,Female,Ledelse,i,1,0.6507402356655803,4,16.0
76,20,21,Female,Løn,i,1,0.5578984054736793,4,17.0
77,20,21,Female,Karriere,i,1,0.5211374139471445,4,18.0
78,20,21,Female,Virksomhed,i,1,0.6044884484290378,4,19.0
79,20,21,Female,Børn,e,1,0.6105493844370358,4,20.0
80,20,21,Female,Birthe,i,1,0.8200559773104033,4,21.0
81,20,21,Female,Mikkel,e,1,0.7573220319609391,4,22.0
82,20,21,Female,Ægteskab,e,1,0.9803490370832151,4,23.0
83,20,21,Female,Jens,e,1,0.6867510848242091,4,24.0
84,20,21,Female,Forældre,e,1,0.9589746656274656,4,25.0
85,20,21,Female,Akademiker,i,1,0.6478601531125605,4,26.0
86,20,21,Female,Ægteskab,e,1,0.6213548258092487,4,27.0
87,20,21,Female,Ole,e,1,0.666269654975622,4,28.0
88,20,21,Female,Mette,i,1,0.5886506719543831,4,29.0
89,20,21,Female,Hjem,e,1,0.895221936822054,4,30.0
90,20,21,Female,Jens,e,1,1.1375143468758324,4,31.0
91,20,21,Female,Slægtninge,e,1,0.8789584400510648,4,32.0
92,20,21,Female,Akademiker,i,1,0.6376004726625979,4,33.0
93,20,21,Female,Sebastian,e,1,0.8294490447588032,4,34.0
94,20,21,Female,Hjem,e,1,0.8226758974487893,4,35.0
95,20,21,Female,Josefine,i,1,0.6414814887539251,4,36.0
96,20,21,Female,Mikkel,e,1,0.6897449605312431,4,37.0
97,20,21,Female,Line,i,1,0.6526479444873985,4,38.0
98,20,21,Female,Casper,e,1,0.9613143422175199,4,39.0
99,20,21,Female,Bryllup,e,1,0.8643674796039704,4,40.0
100,20,21,Female,Forældre,i,1,0.8727756784210214,5,1.0
101,20,21,Female,Ægteskab,i,1,0.6990773382858606,5,2.0
102,20,21,Female,Bryllup,i,1,1.1292319898930145,5,3.0
103,20,21,Female,Slægtninge,i,1,0.7241229894279968,5,4.0
104,20,21,Female,Karriere,e,1,0.8863465166796232,5,5.0
105,20,21,Female,Børn,i,1,0.8194365855306387,5,6.0
106,20,21,Female,Familie,i,1,0.9900134231284028,5,7.0
107,20,21,Female,Kontor,e,1,0.6502332982927328,5,8.0
108,20,21,Female,Løn,e,1,0.8738484578643693,5,9.0
109,20,21,Female,Børn,i,1,0.8051035562384641,5,10.0
110,20,21,Female,Slægtninge,i,1,1.8460128662118223,5,11.0
111,20,21,Female,Handel,e,1,0.8256666494125966,5,12.0
112,20,21,Female,Familie,i,1,0.7925100004067644,5,13.0
113,20,21,Female,Virksomhed,e,1,0.5966608178423485,5,14.0
114,20,21,Female,Akademiker,e,1,0.6202418840839528,5,15.0
115,20,21,Female,Ledelse,e,1,0.7351810069812927,5,16.0
116,20,21,Female,Forældre,i,1,0.7230377150699496,5,17.0
117,20,21,Female,Ledelse,e,1,0.5310762423177948,5,18.0
118,20,21,Female,Kontor,e,1,0.5371135271852836,5,19.0
119,20,21,Female,Løn,e,1,0.6633431626687525,5,20.0
120,20,21,Female,Forældre,i,1,0.5323908879800001,5,21.0
121,20,21,Female,Hjem,i,1,0.6063046765048057,5,22.0
122,20,21,Female,Ægteskab,i,1,0.5911269003408961,5,23.0
123,20,21,Female,Hjem,e,0,0.5284206223586807,5,24.0
124,20,21,Female,Akademiker,e,1,0.6794892962934682,5,25.0
125,20,21,Female,Virksomhed,e,1,0.5500779148424044,5,26.0
126,20,21,Female,Karriere,e,1,0.6024075954919681,5,27.0
127,20,21,Female,Handel,e,1,0.5392818446853198,5,28.0
128,20,21,Female,Birthe,i,1,0.7558761894761119,6,1.0
129,20,21,Female,Familie,i,1,0.6842744102032157,6,2.0
130,20,21,Female,Casper,e,1,0.99185999603651,6,3.0
131,20,21,Female,Jens,e,1,0.8575729124131612,6,4.0
132,20,21,Female,Morten,e,1,0.5240429325931473,6,5.0
133,20,21,Female,Hjem,i,1,0.8831710181693779,6,6.0
134,20,21,Female,Josefine,i,1,0.856163662232575,6,7.0
135,20,21,Female,Bryllup,i,1,0.6449318758241134,6,8.0
136,20,21,Female,Jens,i,0,0.5709913124446757,6,9.0
137,20,21,Female,Sebastian,e,1,0.6639741569088073,6,10.0
138,20,21,Female,Børn,i,1,1.49959926957672,6,11.0
139,20,21,Female,Virksomhed,e,1,0.6869037015421782,6,12.0
140,20,21,Female,Ægteskab,i,1,1.2377040913706878,6,13.0
141,20,21,Female,Line,i,1,0.6742570422356948,6,14.0
142,20,21,Female,Virksomhed,e,1,0.7253019758063601,6,15.0
143,20,21,Female,Forældre,i,1,1.7001791238144506,6,16.0
144,20,21,Female,Akademiker,e,1,1.5151684049487812,6,17.0
145,20,21,Female,Slægtninge,i,1,0.9238594355556415,6,18.0
146,20,21,Female,Karriere,e,1,0.6656931029865518,6,19.0
147,20,21,Female,Hanne,i,1,0.7826082106039394,6,20.0
148,20,21,Female,Ruth,i,1,1.7741710056725424,7,1.0
149,20,21,Female,Rasmus,e,1,0.6125780263973866,7,2.0
150,20,21,Female,Familie,i,1,0.9695377945026848,7,3.0
151,20,21,Female,Morten,e,1,0.5370648862008238,7,4.0
152,20,21,Female,Ole,e,1,0.5460233084158972,7,5.0
153,20,21,Female,Forældre,i,1,0.5740583727601916,7,6.0
154,20,21,Female,Hanne,i,1,0.6825701902998844,7,7.0
155,20,21,Female,Rasmus,e,1,0.6386527246941114,7,8.0
156,20,21,Female,Casper,e,1,0.5866019488603342,7,9.0
157,20,21,Female,Josefine,i,1,0.575658170710085,7,10.0
158,20,21,Female,Ole,e,1,0.444179769983748,7,11.0
159,20,21,Female,Slægtninge,i,1,1.4452297907846514,7,12.0
160,20,21,Female,Ruth,i,1,0.7050633046892472,7,13.0
161,20,21,Female,Virksomhed,e,1,0.5734180073486641,7,14.0
162,20,21,Female,Camilla,i,1,0.6970272764447145,7,15.0
163,20,21,Female,Ledelse,e,1,0.566249484589207,7,16.0
164,20,21,Female,Løn,e,1,1.266370149955037,7,17.0
165,20,21,Female,Karriere,e,1,0.4965826352563454,7,18.0
166,20,21,Female,Virksomhed,e,1,0.4902820642455481,7,19.0
167,20,21,Female,Børn,i,1,0.6279851738654543,7,20.0
168,20,21,Female,Birthe,i,1,0.7323201130930101,7,21.0
169,20,21,Female,Mikkel,e,1,0.6986489405244356,7,22.0
170,20,21,Female,Ægteskab,i,1,1.1609512751165312,7,23.0
171,20,21,Female,Jens,e,1,1.1819280398776755,7,24.0
172,20,21,Female,Forældre,i,1,1.1306796173739713,7,25.0
173,20,21,Female,Akademiker,e,1,1.0068543644010788,7,26.0
174,20,21,Female,Ægteskab,i,1,0.756461666431278,7,27.0
175,20,21,Female,Ole,e,1,0.7378165457921568,7,28.0
176,20,21,Female,Mette,i,1,0.6409924012987176,7,29.0
177,20,21,Female,Hjem,i,1,0.8654518614785047,7,30.0
178,20,21,Female,Jens,e,1,0.5621971093787579,7,31.0
179,20,21,Female,Slægtninge,i,1,0.7477446642296854,7,32.0
180,20,21,Female,Akademiker,e,1,0.681997654523002,7,33.0
181,20,21,Female,Sebastian,i,0,1.5437559239508118,7,34.0
182,20,21,Female,Hjem,i,1,1.0795374018052826,7,35.0
183,20,21,Female,Josefine,i,1,1.3780534497636836,7,36.0
184,20,21,Female,Mikkel,e,1,0.8448602084536105,7,37.0
185,20,21,Female,Line,i,1,0.8258875420142431,7,38.0
186,20,21,Female,Casper,e,1,1.9738597032992402,7,39.0
187,20,21,Female,Bryllup,i,1,1.1155821658030618,7,40.0
